cpu_ts,timestamp,acc_x,acc_y,acc_z,timestamp,gyro_x,gyro_y,gyro_z
1608115974233,1608115974217,0.343233,-9.306511,-1.814230,1608115974231,-0.001745,0.001745,0.000000
1608115974250,1608115974233,0.323619,-9.306511,-1.775004,1608115974249,-0.001745,0.001745,0.001745
1608115974267,1608115974249,0.343233,-9.267284,-1.794617,1608115974266,-0.001745,0.003491,0.003491
1608115974284,1608115974264,0.362846,-9.306511,-1.676937,1608115974282,0.000000,0.000000,0.001745
1608115974300,1608115974284,0.343233,-9.286898,-1.833843,1608115974299,-0.003491,-0.001745,0.003491
1608115974317,1608115974300,0.304006,-9.306511,-1.775004,1608115974316,-0.003491,0.000000,-0.001745
1608115974334,1608115974315,0.323619,-9.286898,-1.775004,1608115974332,-0.005236,0.003491,0.001745
1608115974351,1608115974331,0.284393,-9.267284,-1.676937,1608115974349,-0.005236,0.000000,0.001745
1608115974367,1608115974351,0.323619,-9.306511,-1.814230,1608115974366,-0.003491,0.005236,0.003491
1608115974384,1608115974366,0.304006,-9.267284,-1.716164,1608115974383,-0.003491,0.001745,0.001745
1608115974401,1608115974382,0.343233,-9.208445,-1.814230,1608115974401,0.000000,0.005236,0.000000
1608115974418,1608115974398,0.323619,-9.306511,-1.755390,1608115974416,-0.001745,0.001745,0.000000
1608115974435,1608115974417,0.323619,-9.384964,-1.775004,1608115974433,-0.003491,0.000000,0.000000
1608115974451,1608115974433,0.382459,-9.286898,-1.716164,1608115974450,0.000000,0.005236,0.000000
1608115974468,1608115974449,0.362846,-9.286898,-1.814230,1608115974466,-0.001745,0.003491,0.001745
1608115974485,1608115974468,0.402073,-9.267284,-1.814230,1608115974484,-0.001745,0.005236,-0.003491
1608115974502,1608115974484,0.323619,-9.286898,-1.735777,1608115974501,-0.001745,0.001745,0.000000
1608115974519,1608115974500,0.362846,-9.247671,-1.676937,1608115974517,0.001745,0.000000,0.001745
1608115974535,1608115974515,0.402073,-9.326124,-1.657324,1608115974534,-0.001745,0.000000,0.000000
1608115974552,1608115974531,0.382459,-9.267284,-1.716164,1608115974552,-0.003491,0.001745,0.001745
1608115974569,1608115974551,0.382459,-9.228058,-1.716164,1608115974568,-0.003491,0.001745,0.000000
1608115974586,1608115974566,0.323619,-9.306511,-1.716164,1608115974585,0.000000,0.001745,0.000000
1608115974603,1608115974582,0.343233,-9.286898,-1.814230,1608115974601,-0.005236,0.003491,0.000000
1608115974620,1608115974602,0.411879,-9.326124,-1.853457,1608115974618,0.000000,0.000000,0.000000
1608115974636,1608115974617,0.382459,-9.267284,-1.775004,1608115974635,-0.001745,0.001745,0.000000
1608115974653,1608115974633,0.323619,-9.306511,-1.833843,1608115974652,-0.001745,0.000000,0.000000
1608115974670,1608115974649,0.284393,-9.326124,-1.853457,1608115974668,-0.005236,0.005236,-0.001745
1608115974687,1608115974668,0.323619,-9.286898,-1.735777,1608115974686,-0.003491,0.001745,-0.001745
1608115974704,1608115974684,0.304006,-9.267284,-1.833843,1608115974702,-0.003491,0.006981,0.000000
1608115974720,1608115974700,0.284393,-9.247671,-1.775004,1608115974720,0.000000,0.003491,0.003491
1608115974737,1608115974715,0.382459,-9.286898,-1.657324,1608115974735,0.000000,0.000000,0.003491
1608115974754,1608115974735,0.304006,-9.306511,-1.735777,1608115974752,0.000000,0.001745,0.003491
1608115974771,1608115974751,0.284393,-9.365351,-1.775004,1608115974770,-0.001745,0.005236,0.000000
1608115974788,1608115974766,0.343233,-9.228058,-1.657324,1608115974786,0.000000,0.000000,0.000000
1608115974804,1608115974782,0.304006,-9.267284,-1.608291,1608115974803,0.000000,0.000000,0.000000
1608115974821,1608115974802,0.362846,-9.306511,-1.657324,1608115974820,-0.003491,0.000000,0.000000
1608115974838,1608115974817,0.343233,-9.345737,-1.735777,1608115974836,0.001745,0.000000,0.001745
1608115974855,1608115974833,0.323619,-9.365351,-1.833843,1608115974853,-0.003491,0.001745,-0.003491
1608115974871,1608115974849,0.362846,-9.188830,-1.676937,1608115974870,-0.005236,0.003491,0.000000
1608115974888,1608115974868,0.382459,-9.286898,-1.853457,1608115974887,-0.005236,0.000000,0.000000
1608115974905,1608115974884,0.323619,-9.306511,-1.794617,1608115974904,0.000000,0.001745,0.003491
1608115974922,1608115974900,0.343233,-9.326124,-1.775004,1608115974920,0.000000,0.003491,0.003491
1608115974939,1608115974916,0.362846,-9.267284,-1.775004,1608115974936,-0.001745,0.001745,0.000000
1608115974972,1608115974951,0.284393,-9.345737,-1.676937,1608115974970,-0.005236,0.000000,-0.001745
1608115974989,1608115974967,0.323619,-9.306511,-1.794617,1608115974988,-0.005236,0.006981,0.000000
1608115975006,1608115974983,0.343233,-9.306511,-1.775004,1608115975004,0.000000,0.001745,0.000000
1608115975022,1608115975003,0.323619,-9.267284,-1.892683,1608115975021,0.000000,0.000000,0.001745
1608115975039,1608115975019,0.402073,-9.267284,-1.755390,1608115975038,-0.003491,0.001745,-0.003491
1608115975056,1608115975035,0.343233,-9.286898,-1.696550,1608115975054,-0.001745,0.003491,0.000000
1608115975073,1608115975050,0.382459,-9.345737,-1.873070,1608115975071,-0.001745,0.000000,0.000000
1608115975090,1608115975070,0.304006,-9.345737,-1.833843,1608115975089,-0.003491,0.005236,0.000000
1608115975106,1608115975086,0.284393,-9.267284,-1.814230,1608115975105,-0.003491,0.003491,0.000000
1608115975123,1608115975102,0.343233,-9.247671,-1.470997,1608115975122,-0.003491,0.003491,0.000000
1608115975140,1608115975118,0.284393,-9.345737,-1.794617,1608115975139,-0.001745,0.000000,0.000000
1608115975157,1608115975138,0.284393,-9.286898,-1.637710,1608115975155,-0.003491,0.003491,0.000000
1608115975173,1608115975154,0.362846,-9.365351,-1.931910,1608115975172,0.000000,0.001745,0.000000
1608115975190,1608115975169,0.323619,-9.326124,-1.755390,1608115975189,0.000000,0.000000,0.000000
1608115975207,1608115975185,0.284393,-9.306511,-1.775004,1608115975205,0.000000,0.000000,0.000000
1608115975224,1608115975205,0.362846,-9.267284,-1.676937,1608115975222,-0.003491,0.005236,0.001745
1608115975241,1608115975221,0.323619,-9.404577,-2.059397,1608115975239,-0.003491,0.000000,0.000000
1608115975261,1608115975241,0.323619,-9.326124,-1.794617,1608115975260,0.000000,0.001745,-0.001745
1608115975278,1608115975257,0.343233,-9.286898,-1.794617,1608115975276,-0.001745,0.003491,0.000000
1608115975295,1608115975277,0.362846,-9.326124,-1.951523,1608115975294,0.000000,0.001745,0.000000
1608115975312,1608115975293,0.382459,-9.345737,-1.735777,1608115975310,-0.003491,0.000000,0.000000
1608115975328,1608115975308,0.343233,-9.286898,-1.775004,1608115975327,-0.001745,0.003491,0.001745
1608115975345,1608115975324,0.304006,-9.267284,-1.775004,1608115975344,-0.001745,0.006981,0.003491
1608115975362,1608115975344,0.362846,-9.267284,-1.775004,1608115975360,0.000000,0.003491,0.000000
1608115975379,1608115975360,0.343233,-9.345737,-1.755390,1608115975378,-0.003491,0.000000,0.000000
1608115975395,1608115975372,0.304006,-9.286898,-1.794617,1608115975394,-0.003491,0.003491,0.001745
1608115975412,1608115975392,0.323619,-9.267284,-1.735777,1608115975411,-0.001745,0.003491,0.000000
1608115975429,1608115975412,0.284393,-9.326124,-1.755390,1608115975428,-0.005236,0.000000,0.000000
1608115975446,1608115975428,0.343233,-9.326124,-1.755390,1608115975444,-0.003491,0.005236,0.003491
1608115975463,1608115975444,0.343233,-9.326124,-1.794617,1608115975461,-0.001745,0.001745,0.000000
1608115975479,1608115975463,0.284393,-9.247671,-1.657324,1608115975478,0.000000,0.001745,0.001745
1608115975496,1608115975479,0.284393,-9.306511,-1.833843,1608115975494,-0.003491,0.000000,0.000000
1608115975513,1608115975495,0.343233,-9.267284,-1.775004,1608115975512,-0.001745,0.001745,0.001745
1608115975530,1608115975511,0.323619,-9.267284,-1.735777,1608115975529,0.000000,0.001745,0.000000
1608115975546,1608115975527,0.362846,-9.267284,-1.853457,1608115975545,-0.001745,0.005236,0.000000
1608115975563,1608115975547,0.382459,-9.326124,-1.755390,1608115975562,-0.001745,0.000000,0.000000
1608115975580,1608115975563,0.362846,-9.286898,-1.716164,1608115975579,-0.001745,0.006981,0.000000
1608115975597,1608115975579,0.323619,-9.267284,-1.637710,1608115975596,-0.001745,0.000000,0.000000
1608115975614,1608115975591,0.323619,-9.247671,-1.755390,1608115975613,0.000000,0.005236,0.003491
1608115975630,1608115975611,0.323619,-9.267284,-1.775004,1608115975630,0.000000,0.005236,-0.001745
1608115975647,1608115975631,0.323619,-9.326124,-1.794617,1608115975646,0.000000,0.000000,0.001745
1608115975664,1608115975647,0.362846,-9.326124,-1.794617,1608115975663,-0.001745,0.000000,-0.001745
1608115975681,1608115975659,0.343233,-9.306511,-1.775004,1608115975680,0.000000,0.000000,0.003491
1608115975697,1608115975674,0.304006,-9.345737,-1.853457,1608115975696,-0.003491,0.003491,0.001745
1608115975714,1608115975686,0.304006,-9.208445,-1.676937,1608115975714,-0.001745,0.000000,-0.003491
1608115975731,1608115975714,0.323619,-9.247671,-1.696550,1608115975730,0.000000,0.001745,0.000000
1608115975748,1608115975722,0.343233,-9.247671,-1.657324,1608115975747,-0.003491,0.001745,0.000000
1608115975765,1608115975750,0.343233,-9.286898,-1.676937,1608115975763,0.000000,0.001745,0.000000
1608115975781,1608115975766,0.343233,-9.326124,-1.657324,1608115975780,-0.001745,0.000000,-0.003491
1608115975798,1608115975782,0.343233,-9.326124,-1.912297,1608115975798,-0.005236,0.001745,0.000000
1608115975815,1608115975798,0.264780,-9.326124,-1.676937,1608115975814,-0.001745,0.001745,0.000000
1608115975832,1608115975818,0.323619,-9.345737,-1.990750,1608115975830,-0.001745,0.000000,0.001745
1608115975849,1608115975834,0.362846,-9.306511,-1.853457,1608115975847,0.000000,0.000000,0.001745
1608115975865,1608115975850,0.323619,-9.228058,-1.755390,1608115975864,-0.001745,0.008727,0.000000
1608115975882,1608115975870,0.362846,-9.188830,-1.529837,1608115975881,0.000000,0.000000,0.001745
1608115975899,1608115975886,0.264780,-9.267284,-1.735777,1608115975897,0.000000,0.003491,0.000000
1608115975916,1608115975902,0.304006,-9.306511,-1.775004,1608115975914,-0.001745,0.001745,0.000000
1608115975949,1608115975937,0.284393,-9.247671,-1.716164,1608115975948,0.000000,0.003491,0.000000
1608115975966,1608115975953,0.323619,-9.247671,-1.794617,1608115975964,0.000000,0.000000,0.000000
1608115975983,1608115975969,0.323619,-9.345737,-1.755390,1608115975982,0.000000,0.000000,0.001745
1608115975999,1608115975985,0.304006,-9.365351,-1.853457,1608115975998,0.000000,-0.001745,0.000000
1608115976016,1608115976005,0.382459,-9.326124,-1.716164,1608115976015,-0.001745,0.003491,0.003491
1608115976033,1608115976016,0.304006,-9.267284,-1.716164,1608115976032,0.000000,0.003491,-0.001745
1608115976050,1608115976036,0.343233,-9.228058,-1.735777,1608115976048,0.000000,0.000000,0.000000
1608115976067,1608115976052,0.323619,-9.267284,-1.794617,1608115976065,-0.001745,0.000000,0.000000
1608115976083,1608115976072,0.323619,-9.326124,-1.637710,1608115976083,-0.001745,0.003491,0.001745
1608115976100,1608115976088,0.323619,-9.365351,-1.892683,1608115976098,0.001745,0.005236,0.000000
1608115976117,1608115976103,0.304006,-9.286898,-1.735777,1608115976115,-0.001745,0.001745,0.000000
1608115976134,1608115976119,0.304006,-9.306511,-1.676937,1608115976133,0.000000,0.001745,0.001745
1608115976150,1608115976139,0.362846,-9.286898,-1.657324,1608115976149,0.000000,0.000000,0.000000
1608115976167,1608115976155,0.323619,-9.286898,-1.794617,1608115976167,-0.001745,0.003491,0.000000
1608115976184,1608115976171,0.284393,-9.267284,-1.873070,1608115976183,-0.001745,0.003491,0.000000
1608115976201,1608115976186,0.304006,-9.326124,-1.755390,1608115976199,0.000000,0.005236,0.000000
1608115976218,1608115976206,0.245166,-9.228058,-1.637710,1608115976217,-0.003491,0.003491,0.000000
1608115976234,1608115976222,0.284393,-9.404577,-1.775004,1608115976233,0.000000,0.005236,0.000000
1608115976251,1608115976238,0.343233,-9.345737,-1.814230,1608115976250,-0.005236,0.001745,0.000000
1608115976273,1608115976262,0.343233,-9.306511,-1.716164,1608115976272,-0.003491,0.003491,0.003491
1608115976290,1608115976277,0.343233,-9.286898,-1.735777,1608115976288,-0.003491,0.005236,-0.001745
1608115976307,1608115976293,0.343233,-9.306511,-1.814230,1608115976306,0.000000,0.001745,0.001745
1608115976324,1608115976309,0.284393,-9.247671,-1.657324,1608115976322,-0.001745,0.000000,-0.003491
1608115976340,1608115976313,0.362846,-9.306511,-1.912297,1608115976326,0.001745,0.003491,0.000000
1608115976357,1608115976333,0.362846,-9.267284,-1.657324,1608115976357,0.000000,0.005236,0.001745
1608115976374,1608115976349,0.323619,-9.384964,-2.029977,1608115976373,0.000000,0.003491,-0.001745
1608115976391,1608115976368,0.343233,-9.267284,-1.735777,1608115976390,0.000000,0.001745,0.000000
1608115976408,1608115976396,0.304006,-9.326124,-1.814230,1608115976406,0.000000,0.003491,0.000000
1608115976424,1608115976412,0.362846,-9.384964,-1.716164,1608115976423,0.000000,0.006981,0.000000
1608115976441,1608115976428,0.304006,-9.345737,-1.873070,1608115976440,0.000000,0.001745,0.001745
1608115976458,1608115976448,0.304006,-9.306511,-1.912297,1608115976457,0.000000,0.003491,-0.001745
1608115976475,1608115976463,0.284393,-9.247671,-1.775004,1608115976473,-0.003491,0.003491,0.001745
1608115976491,1608115976479,0.343233,-9.306511,-1.676937,1608115976491,-0.003491,0.005236,0.000000
1608115976508,1608115976495,0.323619,-9.326124,-1.833843,1608115976507,-0.003491,0.005236,-0.005236
1608115976525,1608115976511,0.323619,-9.267284,-1.775004,1608115976523,0.000000,0.001745,0.000000
1608115976542,1608115976531,0.304006,-9.286898,-1.814230,1608115976541,-0.001745,0.001745,0.000000
1608115976559,1608115976546,0.304006,-9.306511,-1.873070,1608115976557,-0.001745,0.001745,0.000000
1608115976575,1608115976562,0.323619,-9.326124,-1.657324,1608115976574,-0.003491,0.001745,0.000000
1608115976592,1608115976582,0.323619,-9.345737,-1.794617,1608115976591,-0.003491,0.000000,-0.003491
1608115976609,1608115976598,0.343233,-9.267284,-1.833843,1608115976607,-0.003491,0.006981,0.000000
1608115976626,1608115976614,0.323619,-9.286898,-1.716164,1608115976624,0.000000,0.005236,0.000000
1608115976642,1608115976630,0.382459,-9.228058,-1.676937,1608115976642,-0.003491,0.000000,0.001745
1608115976659,1608115976649,0.304006,-9.267284,-1.794617,1608115976657,-0.001745,0.001745,0.000000
1608115976676,1608115976665,0.284393,-9.286898,-1.755390,1608115976676,0.000000,0.001745,-0.001745
1608115976693,1608115976681,0.362846,-9.326124,-1.814230,1608115976691,0.000000,0.000000,-0.001745
1608115976710,1608115976697,0.343233,-9.228058,-1.814230,1608115976708,-0.001745,0.000000,0.000000
1608115976727,1608115976717,0.343233,-9.365351,-1.873070,1608115976726,-0.001745,-0.003491,0.000000
1608115976743,1608115976733,0.362846,-9.306511,-1.735777,1608115976742,0.000000,0.001745,-0.003491
1608115976760,1608115976748,0.343233,-9.345737,-1.833843,1608115976759,0.000000,0.000000,-0.001745
1608115976777,1608115976764,0.343233,-9.306511,-1.716164,1608115976776,0.000000,0.001745,0.000000
1608115976794,1608115976784,0.382459,-9.345737,-1.833843,1608115976792,0.000000,0.000000,0.000000
1608115976811,1608115976800,0.343233,-9.267284,-1.657324,1608115976810,0.000000,0.003491,-0.001745
1608115976827,1608115976816,0.382459,-9.286898,-1.794617,1608115976825,-0.001745,0.001745,0.000000
1608115976844,1608115976832,0.362846,-9.228058,-1.676937,1608115976843,-0.005236,-0.001745,0.000000
1608115976861,1608115976851,0.343233,-9.286898,-1.833843,1608115976860,0.001745,0.001745,0.001745
1608115976878,1608115976867,0.323619,-9.267284,-1.637710,1608115976876,0.000000,0.005236,0.000000
1608115976895,1608115976883,0.323619,-9.326124,-1.971137,1608115976893,-0.003491,0.001745,0.000000
1608115976911,1608115976899,0.304006,-9.247671,-1.794617,1608115976910,-0.001745,0.001745,-0.001745
1608115976928,1608115976919,0.343233,-9.345737,-1.873070,1608115976927,-0.003491,0.000000,0.003491
1608115976945,1608115976934,0.323619,-9.267284,-1.627904,1608115976944,-0.001745,0.001745,0.003491
1608115976962,1608115976950,0.362846,-9.326124,-1.833843,1608115976961,-0.003491,0.003491,-0.003491
1608115976979,1608115976966,0.343233,-9.286898,-1.833843,1608115976977,0.000000,0.005236,0.000000
1608115976995,1608115976986,0.343233,-9.345737,-1.716164,1608115976995,0.000000,0.001745,0.000000
1608115977012,1608115977002,0.382459,-9.267284,-1.676937,1608115977011,0.000000,0.001745,0.000000
1608115977029,1608115977017,0.362846,-9.306511,-1.775004,1608115977027,0.000000,0.001745,0.000000
1608115977046,1608115977033,0.323619,-9.306511,-1.716164,1608115977045,-0.001745,0.001745,0.000000
1608115977062,1608115977053,0.382459,-9.267284,-1.716164,1608115977060,-0.001745,0.005236,0.000000
1608115977079,1608115977069,0.323619,-9.286898,-1.755390,1608115977077,-0.001745,0.005236,0.000000
1608115977096,1608115977085,0.343233,-9.267284,-1.833843,1608115977095,-0.005236,0.003491,0.000000
1608115977130,1608115977120,0.343233,-9.286898,-1.892683,1608115977128,-0.001745,0.000000,0.000000
1608115977146,1608115977136,0.362846,-9.247671,-1.657324,1608115977145,-0.003491,0.006981,0.000000
1608115977163,1608115977152,0.323619,-9.286898,-1.853457,1608115977162,-0.001745,0.000000,0.003491
1608115977180,1608115977168,0.343233,-9.306511,-1.735777,1608115977180,-0.001745,0.005236,0.000000
1608115977197,1608115977184,0.304006,-9.345737,-1.775004,1608115977196,0.000000,0.001745,-0.001745
1608115977213,1608115977199,0.382459,-9.286898,-1.853457,1608115977212,-0.001745,0.001745,0.001745
1608115977230,1608115977219,0.402073,-9.286898,-1.814230,1608115977229,0.000000,0.001745,-0.001745
1608115977247,1608115977235,0.362846,-9.326124,-1.657324,1608115977246,-0.003491,0.001745,0.000000
1608115977264,1608115977255,0.264780,-9.365351,-1.853457,1608115977262,0.000000,0.003491,0.000000
1608115977287,1608115977271,0.343233,-9.228058,-1.755390,1608115977287,-0.003491,0.005236,0.001745
1608115977304,1608115977294,0.304006,-9.228058,-1.657324,1608115977302,0.000000,0.000000,-0.003491
1608115977321,1608115977310,0.402073,-9.326124,-1.755390,1608115977320,-0.001745,0.003491,0.000000
1608115977338,1608115977326,0.362846,-9.267284,-1.676937,1608115977337,0.000000,0.001745,-0.001745
1608115977355,1608115977346,0.284393,-9.326124,-1.853457,1608115977354,-0.001745,0.001745,0.000000
1608115977371,1608115977361,0.362846,-9.306511,-1.853457,1608115977370,0.000000,0.003491,0.003491
1608115977388,1608115977377,0.382459,-9.267284,-1.637710,1608115977387,0.000000,0.003491,0.005236
1608115977405,1608115977397,0.284393,-9.306511,-1.833843,1608115977404,0.000000,0.000000,0.000000
1608115977422,1608115977413,0.362846,-9.286898,-1.696550,1608115977420,0.000000,0.000000,0.000000
1608115977438,1608115977429,0.343233,-9.326124,-1.892683,1608115977437,-0.001745,0.003491,0.000000
1608115977455,1608115977445,0.323619,-9.306511,-1.716164,1608115977454,-0.003491,-0.001745,0.000000
1608115977472,1608115977464,0.304006,-9.228058,-1.814230,1608115977471,0.000000,0.001745,0.000000
1608115977489,1608115977480,0.343233,-9.286898,-1.794617,1608115977488,-0.003491,0.001745,0.000000
1608115977506,1608115977496,0.402073,-9.247671,-1.696550,1608115977505,0.000000,0.001745,0.000000
1608115977522,1608115977512,0.343233,-9.267284,-1.735777,1608115977521,0.000000,0.003491,0.000000
1608115977539,1608115977528,0.362846,-9.365351,-1.814230,1608115977539,0.000000,0.000000,-0.001745
1608115977556,1608115977547,0.304006,-9.365351,-1.912297,1608115977555,-0.001745,0.000000,0.000000
1608115977573,1608115977563,0.382459,-9.286898,-1.775004,1608115977572,-0.005236,0.006981,0.000000
1608115977590,1608115977579,0.382459,-9.306511,-1.853457,1608115977589,0.000000,0.000000,0.000000
1608115977607,1608115977583,0.362846,-9.247671,-1.696550,1608115977594,0.000000,0.000000,0.001745
1608115977626,1608115977603,0.304006,-9.404577,-1.794617,1608115977626,0.000000,0.000000,-0.001745
1608115977643,1608115977619,0.343233,-9.228058,-1.696550,1608115977643,-0.003491,0.000000,-0.001745
1608115977660,1608115977623,0.323619,-9.326124,-1.794617,1608115977644,-0.001745,0.005236,0.000000
1608115977681,1608115977638,0.304006,-9.247671,-1.794617,1608115977681,-0.001745,0.001745,0.000000
1608115977698,1608115977662,0.264780,-9.286898,-1.696550,1608115977697,-0.003491,0.003491,-0.003491
1608115977714,1608115977686,0.362846,-9.286898,-1.696550,1608115977714,-0.003491,0.005236,0.000000
1608115977731,1608115977714,0.304006,-9.306511,-1.833843,1608115977730,-0.003491,0.001745,0.003491
1608115977748,1608115977741,0.343233,-9.247671,-1.775004,1608115977746,-0.001745,0.003491,0.000000
1608115977765,1608115977757,0.362846,-9.384964,-1.853457,1608115977764,-0.003491,0.000000,0.000000
1608115977782,1608115977773,0.362846,-9.286898,-1.657324,1608115977780,0.000000,0.005236,0.000000
1608115977798,1608115977789,0.362846,-9.326124,-1.794617,1608115977798,0.000000,0.001745,0.000000
1608115977815,1608115977805,0.362846,-9.326124,-1.775004,1608115977813,0.000000,0.003491,0.000000
1608115977832,1608115977824,0.323619,-9.286898,-1.755390,1608115977830,-0.001745,0.001745,0.000000
1608115977848,1608115977840,0.362846,-9.208445,-1.627904,1608115977848,-0.005236,0.000000,-0.001745
1608115977865,1608115977856,0.304006,-9.286898,-1.716164,1608115977864,-0.003491,0.001745,0.000000
1608115977882,1608115977872,0.343233,-9.247671,-1.833843,1608115977880,-0.001745,0.000000,0.001745
1608115977899,1608115977892,0.382459,-9.286898,-1.716164,1608115977898,0.000000,0.001745,0.001745
1608115977916,1608115977907,0.284393,-9.345737,-1.892683,1608115977914,0.000000,0.000000,0.000000
1608115977932,1608115977923,0.264780,-9.306511,-1.814230,1608115977931,0.000000,0.005236,0.000000
1608115977949,1608115977939,0.304006,-9.306511,-1.853457,1608115977948,-0.003491,0.000000,0.000000
1608115977966,1608115977959,0.245166,-9.267284,-1.696550,1608115977964,0.000000,0.005236,0.000000
1608115977983,1608115977974,0.304006,-9.267284,-1.833843,1608115977981,0.001745,0.005236,0.001745
1608115977999,1608115977990,0.362846,-9.228058,-1.735777,1608115977998,0.000000,0.005236,0.000000
1608115978016,1608115978006,0.402073,-9.267284,-1.775004,1608115978014,-0.005236,0.000000,0.001745
1608115978033,1608115978026,0.362846,-9.228058,-1.696550,1608115978033,-0.003491,0.000000,0.000000
1608115978050,1608115978042,0.323619,-9.326124,-1.775004,1608115978048,-0.001745,0.001745,-0.001745
1608115978066,1608115978057,0.284393,-9.345737,-1.657324,1608115978065,-0.001745,0.003491,0.000000
1608115978083,1608115978073,0.402073,-9.247671,-1.549451,1608115978083,-0.001745,0.000000,0.001745
1608115978100,1608115978093,0.362846,-9.286898,-1.657324,1608115978098,-0.003491,0.001745,0.000000
1608115978117,1608115978109,0.343233,-9.326124,-1.696550,1608115978115,0.000000,0.005236,0.000000
1608115978133,1608115978125,0.323619,-9.286898,-1.716164,1608115978133,-0.001745,0.003491,0.000000
1608115978150,1608115978140,0.343233,-9.365351,-1.637710,1608115978148,0.000000,0.003491,0.000000
1608115978167,1608115978160,0.323619,-9.267284,-1.696550,1608115978165,-0.003491,0.005236,0.000000
1608115978184,1608115978176,0.343233,-9.306511,-1.676937,1608115978182,-0.001745,0.005236,0.000000
1608115978200,1608115978192,0.343233,-9.286898,-1.735777,1608115978199,-0.001745,0.008727,0.000000
1608115978217,1608115978208,0.362846,-9.326124,-1.775004,1608115978216,-0.003491,0.001745,0.000000
1608115978234,1608115978227,0.304006,-9.306511,-1.794617,1608115978233,-0.001745,0.000000,-0.001745
1608115978251,1608115978243,0.343233,-9.286898,-1.853457,1608115978249,-0.003491,0.003491,-0.003491
1608115978267,1608115978259,0.323619,-9.228058,-1.755390,1608115978267,0.000000,0.000000,0.003491
1608115978284,1608115978275,0.343233,-9.228058,-1.794617,1608115978283,0.000000,0.003491,0.000000
1608115978304,1608115978295,0.323619,-9.286898,-1.814230,1608115978303,0.000000,0.001745,-0.003491
1608115978321,1608115978314,0.343233,-9.188830,-1.814230,1608115978320,-0.005236,0.005236,-0.001745
1608115978338,1608115978330,0.362846,-9.247671,-1.775004,1608115978337,-0.003491,0.000000,0.000000
1608115978355,1608115978346,0.362846,-9.247671,-1.931910,1608115978353,-0.001745,0.003491,0.000000
1608115978372,1608115978366,0.323619,-9.286898,-1.853457,1608115978371,-0.001745,0.003491,0.000000
1608115978388,1608115978381,0.304006,-9.247671,-1.833843,1608115978388,0.000000,0.003491,0.000000
1608115978405,1608115978397,0.343233,-9.306511,-1.814230,1608115978404,-0.001745,0.000000,-0.001745
1608115978422,1608115978413,0.323619,-9.326124,-1.814230,1608115978422,0.000000,0.003491,0.001745
1608115978439,1608115978433,0.323619,-9.267284,-1.735777,1608115978438,-0.001745,0.000000,0.000000
1608115978456,1608115978449,0.362846,-9.286898,-1.735777,1608115978455,-0.001745,0.001745,-0.001745
1608115978473,1608115978464,0.323619,-9.306511,-1.755390,1608115978472,-0.001745,0.003491,-0.001745
1608115978489,1608115978480,0.362846,-9.306511,-1.775004,1608115978488,0.000000,0.000000,0.000000
1608115978506,1608115978500,0.323619,-9.384964,-1.775004,1608115978505,0.000000,0.000000,0.000000
1608115978523,1608115978516,0.304006,-9.306511,-1.735777,1608115978523,-0.001745,0.000000,-0.001745
1608115978540,1608115978532,0.304006,-9.286898,-1.657324,1608115978538,-0.003491,0.003491,0.000000
1608115978557,1608115978547,0.362846,-9.306511,-1.775004,1608115978555,0.000000,0.003491,-0.003491
1608115978574,1608115978567,0.343233,-9.267284,-1.775004,1608115978572,-0.001745,0.003491,0.000000
1608115978590,1608115978583,0.323619,-9.345737,-1.735777,1608115978589,-0.001745,0.003491,0.000000
1608115978607,1608115978599,0.362846,-9.228058,-1.608291,1608115978607,0.000000,0.001745,-0.003491
1608115978624,1608115978615,0.343233,-9.345737,-1.775004,1608115978623,-0.001745,0.000000,0.000000
1608115978641,1608115978634,0.323619,-9.267284,-1.676937,1608115978639,-0.003491,0.003491,0.000000
1608115978657,1608115978650,0.343233,-9.345737,-1.735777,1608115978656,0.000000,0.005236,0.000000
1608115978674,1608115978666,0.362846,-9.228058,-1.814230,1608115978673,-0.003491,0.001745,0.000000
1608115978691,1608115978682,0.343233,-9.286898,-1.794617,1608115978690,0.000000,0.000000,0.000000
1608115978708,1608115978702,0.323619,-9.326124,-1.775004,1608115978707,0.000000,0.003491,0.000000
1608115978725,1608115978717,0.323619,-9.286898,-1.814230,1608115978723,-0.001745,0.003491,0.001745
1608115978741,1608115978733,0.304006,-9.326124,-1.676937,1608115978740,0.000000,0.005236,0.000000
1608115978758,1608115978753,0.343233,-9.326124,-1.794617,1608115978757,0.000000,0.001745,0.000000
1608115978775,1608115978769,0.343233,-9.326124,-1.716164,1608115978773,0.000000,0.000000,0.000000
1608115978792,1608115978785,0.343233,-9.228058,-1.794617,1608115978791,0.001745,0.003491,0.000000
1608115978825,1608115978820,0.323619,-9.208445,-1.696550,1608115978824,-0.003491,0.005236,-0.001745
1608115978842,1608115978824,0.362846,-9.306511,-1.833843,1608115978826,0.000000,0.003491,0.000000
1608115978873,1608115978832,0.362846,-9.306511,-1.892683,1608115978872,0.000000,0.001745,0.000000
1608115978890,1608115978856,0.304006,-9.306511,-1.755390,1608115978889,-0.003491,0.001745,0.000000
1608115978906,1608115978880,0.323619,-9.306511,-1.814230,1608115978906,0.000000,0.001745,0.001745
1608115978923,1608115978911,0.431493,-9.326124,-1.755390,1608115978922,-0.003491,0.005236,0.000000
1608115978940,1608115978935,0.323619,-9.247671,-1.735777,1608115978938,0.000000,0.003491,0.000000
1608115978957,1608115978951,0.323619,-9.326124,-1.696550,1608115978956,0.000000,0.000000,0.001745
1608115978974,1608115978966,0.343233,-9.326124,-1.833843,1608115978972,0.000000,0.001745,0.000000
1608115978990,1608115978982,0.402073,-9.306511,-1.696550,1608115978989,-0.001745,0.001745,0.001745
1608115979007,1608115978998,0.362846,-9.326124,-1.657324,1608115979007,-0.003491,0.001745,0.000000
1608115979024,1608115979018,0.343233,-9.286898,-1.569064,1608115979022,-0.003491,0.000000,0.000000
1608115979041,1608115979034,0.382459,-9.326124,-1.775004,1608115979041,-0.003491,0.003491,0.000000
1608115979058,1608115979049,0.343233,-9.345737,-1.833843,1608115979056,0.000000,0.000000,0.000000
1608115979075,1608115979069,0.323619,-9.306511,-1.873070,1608115979073,0.000000,0.000000,0.003491
1608115979091,1608115979085,0.362846,-9.286898,-1.833843,1608115979090,-0.001745,0.001745,0.000000
1608115979108,1608115979101,0.382459,-9.267284,-1.676937,1608115979106,0.000000,-0.001745,0.001745
1608115979125,1608115979117,0.323619,-9.267284,-1.755390,1608115979123,0.000000,0.001745,0.000000
1608115979142,1608115979136,0.382459,-9.208445,-1.588677,1608115979140,-0.005236,0.005236,0.000000
1608115979159,1608115979152,0.304006,-9.286898,-1.696550,1608115979157,-0.003491,0.003491,-0.003491
1608115979175,1608115979168,0.284393,-9.345737,-1.873070,1608115979174,0.001745,0.005236,0.000000
1608115979192,1608115979184,0.382459,-9.267284,-1.755390,1608115979191,0.000000,0.001745,0.001745
1608115979209,1608115979204,0.382459,-9.326124,-1.755390,1608115979207,-0.003491,0.000000,0.000000
1608115979226,1608115979219,0.323619,-9.247671,-1.735777,1608115979225,-0.005236,0.003491,-0.001745
1608115979243,1608115979235,0.343233,-9.306511,-1.716164,1608115979241,-0.001745,0.003491,0.000000
1608115979259,1608115979255,0.323619,-9.286898,-1.814230,1608115979258,-0.001745,0.000000,0.000000
1608115979276,1608115979271,0.362846,-9.326124,-1.735777,1608115979275,-0.003491,0.001745,0.001745
1608115979293,1608115979286,0.343233,-9.267284,-1.637710,1608115979291,0.000000,0.000000,0.005236
1608115979310,1608115979302,0.323619,-9.208445,-1.716164,1608115979308,-0.001745,0.000000,-0.001745
1608115979331,1608115979322,0.382459,-9.267284,-1.794617,1608115979331,-0.003491,0.001745,0.000000
1608115979348,1608115979342,0.304006,-9.247671,-1.716164,1608115979347,-0.003491,0.000000,0.000000
1608115979365,1608115979358,0.343233,-9.326124,-1.814230,1608115979365,-0.003491,0.000000,0.003491
1608115979382,1608115979377,0.362846,-9.326124,-1.755390,1608115979380,0.000000,0.001745,-0.001745
1608115979399,1608115979393,0.362846,-9.306511,-1.775004,1608115979397,0.000000,0.001745,0.001745
1608115979415,1608115979409,0.343233,-9.267284,-1.775004,1608115979415,-0.003491,0.005236,0.000000
1608115979432,1608115979425,0.362846,-9.365351,-1.775004,1608115979431,-0.001745,0.001745,-0.003491
1608115979449,1608115979445,0.323619,-9.286898,-1.755390,1608115979447,0.000000,0.001745,0.001745
1608115979466,1608115979460,0.343233,-9.247671,-1.814230,1608115979465,0.000000,0.006981,0.000000
1608115979482,1608115979476,0.323619,-9.286898,-1.794617,1608115979481,-0.003491,0.001745,0.001745
1608115979499,1608115979492,0.343233,-9.267284,-1.735777,1608115979498,0.000000,0.000000,0.000000
1608115979516,1608115979512,0.343233,-9.286898,-1.696550,1608115979515,-0.001745,0.003491,0.001745
1608115979533,1608115979528,0.362846,-9.306511,-1.716164,1608115979532,-0.001745,0.003491,-0.001745
1608115979550,1608115979543,0.323619,-9.345737,-1.775004,1608115979549,-0.003491,0.001745,-0.001745
1608115979566,1608115979559,0.304006,-9.326124,-1.794617,1608115979565,-0.003491,0.005236,0.000000
1608115979583,1608115979579,0.304006,-9.326124,-1.775004,1608115979581,0.000000,-0.001745,0.000000
1608115979600,1608115979595,0.304006,-9.326124,-1.676937,1608115979599,0.001745,0.000000,-0.001745
1608115979617,1608115979611,0.382459,-9.247671,-1.657324,1608115979615,0.000000,0.000000,0.000000
1608115979633,1608115979626,0.343233,-9.365351,-1.735777,1608115979632,-0.001745,0.000000,-0.001745
1608115979650,1608115979646,0.362846,-9.228058,-1.657324,1608115979649,-0.001745,0.001745,0.000000
1608115979667,1608115979662,0.323619,-9.267284,-1.716164,1608115979665,-0.003491,0.000000,0.000000
1608115979684,1608115979678,0.343233,-9.306511,-1.775004,1608115979682,-0.003491,0.001745,-0.001745
1608115979700,1608115979694,0.343233,-9.345737,-1.814230,1608115979699,0.000000,0.000000,0.000000
1608115979717,1608115979713,0.304006,-9.345737,-1.775004,1608115979715,-0.003491,0.000000,-0.001745
1608115979734,1608115979729,0.382459,-9.247671,-1.716164,1608115979732,-0.001745,0.005236,0.000000
1608115979751,1608115979745,0.323619,-9.228058,-1.794617,1608115979749,-0.001745,0.001745,0.001745
1608115979768,1608115979761,0.362846,-9.188830,-1.794617,1608115979766,-0.003491,0.003491,0.000000
1608115979784,1608115979780,0.402073,-9.267284,-1.794617,1608115979784,0.000000,0.001745,0.000000
1608115979801,1608115979796,0.245166,-9.345737,-1.775004,1608115979800,0.000000,0.001745,-0.001745
1608115979818,1608115979812,0.264780,-9.326124,-1.755390,1608115979816,0.000000,0.001745,0.000000
1608115979835,1608115979828,0.382459,-9.326124,-1.892683,1608115979834,-0.003491,0.001745,0.000000
1608115979851,1608115979848,0.343233,-9.267284,-1.833843,1608115979849,-0.001745,0.001745,0.003491
1608115979868,1608115979863,0.431493,-9.384964,-1.912297,1608115979866,0.000000,0.005236,0.000000
1608115979885,1608115979879,0.382459,-9.306511,-1.676937,1608115979884,0.000000,0.001745,0.000000
1608115979902,1608115979895,0.362846,-9.228058,-1.696550,1608115979900,-0.001745,0.000000,0.001745
1608115979918,1608115979915,0.284393,-9.306511,-1.716164,1608115979917,0.000000,0.000000,0.000000
1608115979935,1608115979931,0.402073,-9.286898,-1.627904,1608115979934,0.000000,0.000000,-0.001745
1608115979952,1608115979946,0.382459,-9.306511,-1.549451,1608115979951,0.000000,0.000000,-0.001745
1608115979969,1608115979962,0.402073,-9.345737,-1.608291,1608115979967,-0.003491,0.000000,0.000000
1608115979985,1608115979982,0.264780,-9.286898,-1.716164,1608115979984,-0.001745,0.000000,0.001745
1608115980002,1608115979998,0.362846,-9.267284,-1.833843,1608115980000,0.000000,0.005236,0.000000
1608115980019,1608115980014,0.382459,-9.286898,-1.775004,1608115980018,-0.003491,0.005236,0.001745
1608115980036,1608115980030,0.343233,-9.326124,-1.833843,1608115980034,0.000000,0.006981,0.000000
1608115980053,1608115980050,0.402073,-9.247671,-1.794617,1608115980051,-0.001745,0.003491,0.005236
1608115980069,1608115980066,0.362846,-9.326124,-1.814230,1608115980068,-0.001745,0.001745,0.000000
1608115980086,1608115980082,0.284393,-9.267284,-1.755390,1608115980084,0.000000,0.000000,-0.003491
1608115980103,1608115980099,0.362846,-9.326124,-1.853457,1608115980101,-0.001745,0.001745,0.000000
1608115980120,1608115980119,0.362846,-9.306511,-1.755390,1608115980119,-0.003491,0.003491,0.001745
1608115980136,1608115980135,0.323619,-9.326124,-1.696550,1608115980135,-0.003491,0.006981,-0.001745
1608115980153,1608115980151,0.362846,-9.306511,-1.735777,1608115980151,0.000000,0.000000,0.000000
1608115980170,1608115980167,0.402073,-9.267284,-1.696550,1608115980169,0.000000,0.005236,0.001745
1608115980187,1608115980187,0.411879,-9.326124,-1.676937,1608115980185,-0.003491,0.003491,-0.003491
1608115980203,1608115980203,0.343233,-9.286898,-1.755390,1608115980203,0.000000,0.000000,0.000000
1608115980220,1608115980219,0.205940,-9.306511,-1.814230,1608115980219,0.000000,0.000000,-0.001745
1608115980237,1608115980235,0.245166,-9.306511,-1.755390,1608115980235,-0.001745,0.005236,-0.003491
1608115980254,1608115980255,0.362846,-9.286898,-1.814230,1608115980253,0.000000,-0.001745,0.000000
1608115980271,1608115980271,0.245166,-9.345737,-1.814230,1608115980269,0.000000,0.003491,0.001745
1608115980287,1608115980287,0.451106,-9.286898,-1.794617,1608115980286,-0.001745,0.005236,0.000000
1608115980304,1608115980303,0.402073,-9.345737,-1.814230,1608115980303,-0.001745,-0.001745,-0.003491
1608115980321,1608115980324,0.343233,-9.267284,-1.775004,1608115980319,0.000000,0.001745,0.001745
1608115980342,1608115980336,0.284393,-9.326124,-1.794617,1608115980341,-0.001745,0.001745,0.000000
1608115980358,1608115980352,0.362846,-9.247671,-1.608291,1608115980358,0.000000,0.003491,0.000000
1608115980375,1608115980364,0.343233,-9.267284,-1.637710,1608115980374,-0.003491,0.001745,0.000000
1608115980392,1608115980388,0.343233,-9.286898,-1.775004,1608115980391,0.000000,-0.001745,0.001745
1608115980409,1608115980396,0.343233,-9.267284,-1.657324,1608115980407,0.000000,0.001745,-0.001745
1608115980425,1608115980416,0.382459,-9.267284,-1.775004,1608115980425,-0.001745,0.000000,0.000000
1608115980442,1608115980436,0.304006,-9.247671,-1.775004,1608115980441,0.000000,0.001745,0.000000
1608115980459,1608115980460,0.323619,-9.306511,-1.755390,1608115980458,0.000000,0.000000,-0.001745
1608115980476,1608115980480,0.323619,-9.286898,-1.716164,1608115980474,0.000000,0.000000,0.003491
1608115980492,1608115980496,0.304006,-9.267284,-1.775004,1608115980491,-0.003491,0.005236,-0.003491
1608115980509,1608115980504,0.343233,-9.208445,-1.716164,1608115980507,-0.001745,0.001745,0.000000
1608115980526,1608115980533,0.284393,-9.326124,-1.696550,1608115980525,0.000000,-0.003491,0.000000
1608115980543,1608115980549,0.343233,-9.326124,-1.696550,1608115980542,0.000000,0.001745,0.000000
1608115980560,1608115980565,0.411879,-9.345737,-1.755390,1608115980558,0.000000,0.005236,0.000000
1608115980576,1608115980581,0.284393,-9.267284,-1.657324,1608115980576,0.001745,0.000000,0.003491
1608115980593,1608115980601,0.264780,-9.247671,-1.529837,1608115980592,0.000000,0.003491,0.000000
1608115980610,1608115980613,0.529559,-9.365351,-1.892683,1608115980609,-0.005236,-0.006981,0.003491
1608115980627,1608115980633,0.431493,-9.306511,-1.912297,1608115980625,-0.005236,-0.001745,-0.001745
1608115980643,1608115980649,0.245166,-9.286898,-1.588677,1608115980643,0.000000,0.003491,0.003491
1608115980660,1608115980670,0.205940,-9.453610,-1.775004,1608115980659,-0.001745,0.005236,0.003491
1608115980677,1608115980686,0.284393,-9.492837,-1.431771,1608115980675,0.000000,0.000000,0.003491
1608115980694,1608115980702,1.225831,-9.306511,-0.912018,1608115980693,0.000000,-0.008727,0.000000
1608115980711,1608115980718,0.000000,-9.326124,-0.225553,1608115980709,0.005236,-0.012217,-0.006981
1608115980744,1608115980754,0.804145,-8.963278,-0.912018,1608115980743,-0.010472,0.000000,0.010472
1608115980761,1608115980770,0.264780,-9.453610,-2.177076,1608115980760,-0.008727,0.000000,0.005236
1608115980778,1608115980786,0.245166,-9.610517,-1.814230,1608115980777,0.005236,0.000000,-0.003491
1608115980794,1608115980806,0.588399,-9.384964,-1.147378,1608115980793,-0.001745,0.003491,-0.001745
1608115980811,1608115980823,0.431493,-9.787037,-1.814230,1608115980810,0.000000,0.013963,-0.001745
1608115980828,1608115980839,0.725692,-9.414384,-0.990472,1608115980827,-0.003491,-0.006981,0.003491
1608115980845,1608115980855,0.588399,-9.345737,-0.009807,1608115980844,0.012217,-0.003491,0.000000
1608115980862,1608115980875,-0.382459,-9.433997,-0.912018,1608115980862,0.003491,0.006981,-0.005236
1608115980879,1608115980891,0.706079,-9.404577,-0.362846,1608115980877,0.000000,-0.005236,0.000000
1608115980895,1608115980895,0.892405,-9.610517,-1.186605,1608115980882,-0.001745,-0.006981,0.000000
1608115980912,1608115980911,0.627626,-9.512450,-1.274864,1608115980912,0.000000,-0.003491,0.001745
1608115980929,1608115980927,0.225553,-9.365351,-1.108151,1608115980929,-0.005236,0.001745,0.001745
1608115980946,1608115980952,0.147100,-9.326124,-1.235638,1608115980945,-0.003491,0.003491,0.001745
1608115980963,1608115980976,0.127486,-9.551677,-1.127765,1608115980961,0.000000,0.005236,0.001745
1608115980980,1608115980996,0.343233,-9.688970,-0.706079,1608115980978,0.005236,0.006981,0.000000
1608115980996,1608115981011,0.568786,-9.649743,-1.186605,1608115980995,0.001745,-0.005236,-0.001745
1608115981013,1608115981027,0.647239,-9.453610,-1.127765,1608115981012,-0.008727,-0.005236,-0.006981
1608115981030,1608115981043,0.784532,-9.326124,-1.274864,1608115981029,-0.003491,-0.012217,0.000000
1608115981047,1608115981062,-0.107873,-9.110377,-1.068925,1608115981046,0.001745,0.006981,0.001745
1608115981064,1608115981078,-0.205940,-9.110377,-0.588399,1608115981063,0.012217,0.015708,0.003491
1608115981081,1608115981094,-0.009807,-9.688970,-0.588399,1608115981079,0.006981,0.008727,0.001745
1608115981097,1608115981110,0.225553,-9.836070,-0.892405,1608115981096,0.000000,0.000000,-0.001745
1608115981114,1608115981129,1.049312,-9.492837,-0.568786,1608115981112,0.000000,-0.012217,-0.001745
1608115981131,1608115981145,0.451106,-9.326124,-0.970858,1608115981129,0.003491,-0.001745,0.001745
1608115981148,1608115981161,0.147100,-9.208445,-0.764919,1608115981146,0.005236,0.010472,0.000000
1608115981165,1608115981177,0.049033,-9.532063,-1.127765,1608115981163,-0.003491,-0.001745,-0.008727
1608115981181,1608115981196,0.470719,-9.414384,-0.647239,1608115981181,0.001745,-0.008727,-0.005236
1608115981198,1608115981212,1.147378,-9.453610,-0.264780,1608115981196,0.008727,0.001745,0.005236
1608115981215,1608115981228,0.304006,-9.247671,-0.323619,1608115981213,-0.001745,-0.015708,0.005236
1608115981232,1608115981244,-0.009807,-9.649743,-1.029698,1608115981231,0.000000,0.008727,-0.015708
1608115981249,1608115981263,0.970858,-9.610517,-0.490332,1608115981248,0.000000,-0.008727,-0.003491
1608115981265,1608115981279,1.186605,-9.433997,-0.764919,1608115981264,0.001745,-0.013963,-0.001745
1608115981282,1608115981295,0.686466,-9.512450,-0.853179,1608115981282,0.000000,-0.008727,-0.003491
1608115981299,1608115981314,0.304006,-9.247671,-0.411879,1608115981298,0.003491,0.005236,-0.003491
1608115981316,1608115981330,0.264780,-9.610517,-0.647239,1608115981316,0.008727,0.000000,-0.006981
1608115981333,1608115981346,-0.323619,-9.630130,-0.853179,1608115981332,0.000000,0.012217,-0.012217
1608115981353,1608115981366,1.274864,-9.992976,0.343233,1608115981353,0.003491,-0.012217,0.006981
1608115981370,1608115981385,0.264780,-9.208445,-1.255251,1608115981369,0.006981,-0.019199,0.000000
1608115981387,1608115981401,0.745305,-9.590903,0.147100,1608115981386,0.005236,-0.012217,0.003491
1608115981404,1608115981417,0.029420,-9.669356,-1.049312,1608115981403,0.000000,-0.008727,-0.005236
1608115981420,1608115981433,0.912018,-9.630130,-1.235638,1608115981419,0.006981,-0.024435,0.003491
1608115981437,1608115981452,-0.166713,-9.345737,-0.951245,1608115981436,0.010472,0.020944,0.006981
1608115981454,1608115981468,-0.147100,-9.973363,-1.186605,1608115981453,0.005236,-0.001745,0.000000
1608115981471,1608115981484,1.206218,-8.943665,0.627626,1608115981470,0.012217,0.006981,-0.010472
1608115981488,1608115981500,0.225553,-9.247671,-0.608012,1608115981486,0.013963,-0.005236,-0.008727
1608115981504,1608115981519,0.529559,-10.532342,-0.568786,1608115981503,0.003491,0.005236,0.003491
1608115981521,1608115981535,-0.833565,-9.286898,0.362846,1608115981520,0.001745,-0.001745,-0.003491
1608115981538,1608115981551,1.186605,-9.934136,-1.166991,1608115981537,-0.003491,-0.022689,-0.008727
1608115981555,1608115981566,-0.568786,-9.326124,-0.549172,1608115981553,0.005236,0.008727,-0.003491
1608115981571,1608115981586,-0.068647,-9.875297,-1.490611,1608115981570,0.000000,-0.036652,-0.015708
1608115981588,1608115981602,1.627904,-9.404577,-1.274864,1608115981587,0.005236,-0.010472,-0.005236
1608115981605,1608115981618,0.147100,-9.286898,-1.029698,1608115981603,0.006981,-0.015708,-0.001745
1608115981622,1608115981633,0.225553,-10.130269,-0.549172,1608115981621,0.001745,-0.003491,-0.006981
1608115981639,1608115981653,-0.323619,-10.169496,-0.627626,1608115981637,0.012217,-0.010472,-0.008727
1608115981655,1608115981669,-1.372931,-9.149604,-0.990472,1608115981655,0.008727,0.000000,-0.012217
1608115981672,1608115981685,1.372931,-9.590903,0.343233,1608115981671,0.019199,-0.012217,-0.003491
1608115981689,1608115981700,-0.029420,-9.855683,-1.657324,1608115981688,0.006981,-0.003491,0.001745
1608115981706,1608115981708,0.451106,-9.551677,-0.509946,1608115981704,0.006981,0.000000,0.000000
1608115981723,1608115981732,2.255529,-9.855683,-0.264780,1608115981721,0.003491,-0.020944,0.000000
1608115981739,1608115981751,1.068925,-10.110656,-0.686466,1608115981737,0.000000,-0.026180,0.012217
1608115981756,1608115981767,-0.490332,-9.433997,-0.205940,1608115981755,0.000000,-0.020944,0.003491
1608115981773,1608115981787,1.010085,-9.414384,-0.529559,1608115981771,0.000000,-0.012217,-0.010472
1608115981790,1608115981803,0.872792,-9.012311,-0.186326,1608115981788,0.000000,-0.008727,0.000000
1608115981807,1608115981818,0.205940,-9.688970,-1.068925,1608115981805,0.008727,-0.027925,-0.005236
1608115981840,1608115981854,0.382459,-9.551677,-0.568786,1608115981840,0.012217,-0.015708,-0.010472
1608115981857,1608115981870,-0.451106,-10.149882,-2.177076,1608115981855,0.013963,-0.006981,-0.013963
1608115981874,1608115981885,0.813952,-9.708583,-0.264780,1608115981872,0.019199,-0.006981,-0.006981
1608115981890,1608115981901,1.166991,-9.894910,0.647239,1608115981889,0.013963,-0.003491,0.001745
1608115981907,1608115981921,-1.127765,-10.277369,0.764919,1608115981906,0.022689,0.012217,0.005236
1608115981924,1608115981936,-0.127486,-9.031924,0.813952,1608115981923,0.006981,-0.006981,-0.020944
1608115981941,1608115981952,1.814230,-9.806650,-0.411879,1608115981940,0.000000,-0.047124,-0.010472
1608115981958,1608115981968,-0.784532,-9.649743,-2.275143,1608115981956,-0.005236,-0.010472,-0.006981
1608115981974,1608115981988,-1.431771,-10.130269,0.686466,1608115981973,0.000000,-0.001745,-0.010472
1608115981991,1608115982003,0.608012,-9.267284,0.431493,1608115981990,0.003491,-0.001745,-0.006981
1608115982008,1608115982019,1.569064,-9.365351,-0.264780,1608115982006,0.006981,-0.033161,-0.005236
1608115982025,1608115982035,-1.892683,-9.228058,-0.304006,1608115982024,0.026180,0.020944,-0.010472
1608115982042,1608115982055,1.314091,-9.532063,-0.912018,1608115982040,0.015708,-0.008727,-0.013963
1608115982058,1608115982070,4.040339,-10.071429,0.343233,1608115982057,0.005236,-0.055851,-0.006981
1608115982075,1608115982086,0.970858,-10.228335,2.392823,1608115982074,0.000000,-0.005236,-0.019199
1608115982092,1608115982102,2.137850,-9.208445,-0.186326,1608115982090,-0.005236,-0.029671,-0.026180
1608115982109,1608115982121,-1.716164,-8.708305,-0.127486,1608115982107,-0.003491,-0.017453,-0.013963
1608115982126,1608115982137,-3.216581,-9.433997,-1.108151,1608115982125,0.000000,0.029671,-0.027925
1608115982142,1608115982153,2.029977,-9.012311,-0.411879,1608115982141,0.019199,0.000000,-0.029671
1608115982159,1608115982169,3.138128,-10.149882,0.872792,1608115982159,0.022689,0.031416,-0.001745
1608115982176,1608115982188,0.529559,-10.836348,-2.118236,1608115982174,-0.005236,-0.027925,0.003491
1608115982193,1608115982204,2.010363,-9.326124,1.372931,1608115982191,-0.003491,0.024435,-0.015708
1608115982209,1608115982220,3.157741,-9.590903,-2.010363,1608115982209,0.001745,-0.027925,0.005236
1608115982226,1608115982236,1.010085,-9.129991,0.568786,1608115982225,-0.006981,-0.010472,0.013963
1608115982243,1608115982255,-1.490611,-8.688692,1.166991,1608115982242,0.012217,0.036652,0.000000
1608115982260,1608115982267,-2.010363,-8.884825,0.627626,1608115982259,0.005236,-0.043633,0.000000
1608115982276,1608115982287,3.079288,-10.051816,0.470719,1608115982275,0.012217,-0.057596,-0.005236
1608115982293,1608115982302,0.000000,-9.306511,1.971137,1608115982292,0.027925,0.034907,-0.003491
1608115982310,1608115982322,2.118236,-10.473502,-1.314091,1608115982309,0.015708,-0.006981,-0.003491
1608115982327,1608115982338,2.314369,-8.806372,0.451106,1608115982325,0.012217,0.010472,0.008727
1608115982343,1608115982354,-0.588399,-9.326124,0.343233,1608115982342,-0.013963,0.012217,0.006981
1608115982364,1608115982377,-0.549172,-10.699055,-2.736055,1608115982363,0.045379,0.064577,-0.010472
1608115982381,1608115982393,-0.362846,-8.267006,3.363681,1608115982380,0.066323,0.027925,0.001745
1608115982398,1608115982409,1.206218,-5.815343,6.472389,1608115982397,-0.026180,-0.052360,0.001745
1608115982415,1608115982424,-0.509946,-9.090764,1.147378,1608115982413,0.024435,0.094248,-0.008727
1608115982432,1608115982444,0.990472,-10.679441,2.481082,1608115982431,-0.005236,0.041888,0.005236
1608115982448,1608115982460,-0.990472,-12.062180,-3.863820,1608115982447,-0.008727,0.001745,0.000000
1608115982465,1608115982476,1.569064,-10.551955,0.872792,1608115982464,0.036652,0.017453,-0.019199
1608115982482,1608115982491,1.392544,-10.277369,-0.264780,1608115982481,0.062832,0.026180,0.006981
1608115982499,1608115982511,-1.814230,-9.590903,1.431771,1608115982498,0.003491,0.006981,0.034907
1608115982516,1608115982527,-3.344068,-9.669356,-0.225553,1608115982514,-0.012217,0.024435,0.003491
1608115982532,1608115982542,2.451663,-7.698220,4.667965,1608115982531,-0.024435,-0.005236,-0.017453
1608115982549,1608115982558,0.549172,-10.512729,-1.588677,1608115982548,-0.034907,0.033161,-0.006981
1608115982566,1608115982578,-2.137850,-8.806372,-2.794895,1608115982564,-0.022689,0.062832,0.005236
1608115982583,1608115982594,1.186605,-10.434276,2.461469,1608115982581,0.000000,0.076794,-0.001745
1608115982600,1608115982609,1.029698,-13.405690,-2.373209,1608115982599,-0.019199,0.001745,0.008727
1608115982616,1608115982625,-0.186326,-9.875297,2.677215,1608115982615,-0.015708,0.019199,0.005236
1608115982633,1608115982645,-3.442134,-13.062457,-2.039783,1608115982633,-0.043633,0.043633,0.017453
1608115982650,1608115982661,-2.696829,-5.168105,3.804980,1608115982648,-0.031416,0.005236,-0.013963
1608115982667,1608115982676,0.970858,-11.983726,-4.108986,1608115982665,-0.026180,0.005236,-0.026180
1608115982684,1608115982696,-0.068647,-7.600153,0.951245,1608115982683,-0.005236,-0.015708,0.006981
1608115982701,1608115982712,-0.529559,-13.405690,1.853457,1608115982700,0.013963,0.036652,-0.010472
1608115982717,1608115982727,2.098623,-8.982891,-2.255529,1608115982715,0.003491,0.008727,-0.013963
1608115982734,1608115982743,0.166713,-9.708583,1.529837,1608115982733,-0.003491,0.001745,0.005236
1608115982751,1608115982759,1.088538,-10.257755,-0.568786,1608115982750,0.001745,0.003491,0.020944
1608115982768,1608115982779,-1.274864,-10.091043,-0.284393,1608115982767,-0.020944,0.010472,0.017453
1608115982785,1608115982794,-3.079288,-7.786480,0.147100,1608115982783,-0.013963,0.050615,-0.013963
1608115982801,1608115982810,1.971137,-12.160246,2.755669,1608115982799,-0.003491,0.015708,-0.006981
1608115982818,1608115982830,0.549172,-10.149882,-1.274864,1608115982818,-0.008727,0.006981,0.033161
1608115982835,1608115982845,-2.696829,-9.973363,1.049312,1608115982833,0.012217,0.034907,0.036652
1608115982852,1608115982861,-1.225831,-10.453889,1.127765,1608115982850,0.038397,0.026180,0.015708
1608115982868,1608115982877,-0.451106,-8.561205,-2.098623,1608115982867,0.029671,0.027925,0.003491
1608115982902,1608115982912,-2.196690,-7.560927,1.510224,1608115982900,-0.005236,-0.012217,0.010472
1608115982919,1608115982928,0.264780,-9.708583,-0.509946,1608115982917,0.013963,0.062832,-0.017453
1608115982935,1608115982944,0.147100,-12.944777,-1.412158,1608115982934,-0.013963,0.057596,0.010472
1608115982952,1608115982959,-0.990472,-7.237308,-0.402073,1608115982951,-0.066323,0.048869,0.031416
1608115982969,1608115982979,3.883433,-9.286898,0.529559,1608115982968,-0.040143,-0.041888,0.013963
1608115982986,1608115982991,1.049312,-10.493115,1.392544,1608115982983,-0.019199,-0.031416,0.012217
1608115983003,1608115983011,-11.081514,-12.219086,-2.216303,1608115983002,-0.038397,0.040143,0.006981
1608115983019,1608115983030,5.334817,-8.345459,5.374044,1608115983018,-0.043633,0.010472,-0.001745
1608115983036,1608115983046,1.716164,-11.503201,-1.088538,1608115983035,-0.020944,-0.050615,0.019199
1608115983053,1608115983062,-4.667965,-10.718668,-0.970858,1608115983052,-0.054105,0.122173,-0.022689
1608115983070,1608115983078,-2.098623,-8.159133,2.559536,1608115983068,-0.054105,0.087266,-0.017453
1608115983087,1608115983097,4.883712,-9.404577,0.706079,1608115983085,-0.027925,0.048869,0.000000
1608115983103,1608115983113,4.324733,-8.767145,-0.529559,1608115983102,-0.031416,-0.022689,0.045379
1608115983120,1608115983129,-2.961608,-9.208445,1.676937,1608115983119,-0.017453,0.050615,0.043633
1608115983137,1608115983144,-4.481639,-8.688692,-2.039783,1608115983137,-0.010472,0.052360,0.015708
1608115983154,1608115983164,1.412158,-11.601267,0.127486,1608115983152,-0.013963,0.054105,-0.001745
1608115983171,1608115983180,3.599041,-10.954028,-0.147100,1608115983169,-0.013963,0.068068,0.017453
1608115983187,1608115983196,5.315204,-9.816457,2.157463,1608115983187,-0.003491,-0.052360,0.059341
1608115983204,1608115983211,-0.686466,-8.521978,2.834122,1608115983203,0.003491,-0.020944,0.024435
1608115983221,1608115983231,1.833843,-8.041452,2.451663,1608115983219,-0.005236,0.048869,0.003491
1608115983238,1608115983247,-2.863542,-9.306511,0.490332,1608115983237,-0.019199,0.041888,0.036652
1608115983255,1608115983263,2.814508,-10.855961,0.009807,1608115983253,-0.036652,0.010472,0.034907
1608115983271,1608115983278,-0.549172,-9.708583,3.157741,1608115983270,-0.041888,0.047124,0.062832
1608115983288,1608115983298,-4.864098,-7.354987,-0.970858,1608115983287,-0.076794,-0.012217,0.045379
1608115983305,1608115983314,1.010085,-12.179859,-0.813952,1608115983304,-0.043633,0.000000,-0.001745
1608115983322,1608115983330,8.325846,-8.727919,0.382459,1608115983321,-0.034907,-0.102974,0.024435
1608115983338,1608115983345,2.961608,-8.541592,3.687300,1608115983337,-0.020944,-0.092502,0.047124
1608115983355,1608115983365,0.304006,-10.355823,2.373209,1608115983354,-0.040143,-0.095993,0.026180
1608115983376,1608115983385,-0.745305,-8.747532,3.618654,1608115983375,-0.076794,0.129154,-0.034907
1608115983393,1608115983400,11.503201,-9.247671,-1.637710,1608115983392,-0.031416,-0.082030,-0.013963
1608115983410,1608115983420,0.343233,-10.238142,-1.931910,1608115983408,0.020944,0.003491,0.033161
1608115983427,1608115983436,-3.324454,-9.590903,2.196690,1608115983426,0.024435,0.005236,0.027925
1608115983443,1608115983452,1.412158,-10.012589,7.698220,1608115983442,-0.012217,-0.013963,0.000000
1608115983460,1608115983467,3.883433,-9.836070,-3.687300,1608115983459,-0.057596,-0.054105,0.005236
1608115983477,1608115983479,4.059953,-9.384964,0.509946,1608115983476,0.020944,0.043633,0.019199
1608115983494,1608115983503,4.207053,-8.806372,0.205940,1608115983493,0.012217,-0.022689,-0.001745
1608115983511,1608115983518,1.333704,-11.316874,0.931632,1608115983509,0.033161,-0.010472,0.020944
1608115983527,1608115983534,-3.216581,-10.659828,-1.931910,1608115983526,0.054105,0.052360,-0.029671
1608115983544,1608115983554,6.756782,-11.817013,2.922382,1608115983543,-0.006981,0.000000,-0.008727
1608115983561,1608115983570,2.755669,-8.521978,5.511337,1608115983561,-0.052360,-0.111701,0.054105
1608115983578,1608115983585,1.510224,-9.855683,1.549451,1608115983576,-0.041888,-0.075049,0.024435
1608115983595,1608115983601,-2.981221,-8.119906,-0.029420,1608115983593,-0.012217,0.000000,0.001745
1608115983611,1608115983621,-0.490332,-10.228335,1.010085,1608115983611,-0.012217,-0.029671,-0.034907
1608115983628,1608115983637,-3.981500,-9.345737,2.794895,1608115983627,0.036652,0.068068,-0.026180
1608115983645,1608115983652,3.236194,-10.208722,-1.108151,1608115983644,-0.017453,-0.080285,-0.038397
1608115983662,1608115983668,10.189109,-8.267006,2.373209,1608115983661,0.043633,-0.094248,0.033161
1608115983678,1608115983688,-5.707470,-10.316595,1.235638,1608115983677,-0.012217,-0.089012,0.048869
1608115983695,1608115983703,2.177076,-11.336487,1.529837,1608115983694,0.059341,-0.139626,-0.006981
1608115983712,1608115983719,-1.676937,-9.914523,-0.205940,1608115983711,0.026180,-0.031416,-0.024435
1608115983729,1608115983735,-1.274864,-11.562040,-0.411879,1608115983727,-0.001745,-0.116937,-0.008727
1608115983746,1608115983755,-4.040339,-9.404577,4.079566,1608115983744,0.019199,-0.047124,0.000000
1608115983762,1608115983770,-7.806093,-9.688970,2.333983,1608115983761,0.045379,-0.029671,-0.062832
1608115983779,1608115983786,2.196690,-10.610795,2.981221,1608115983778,0.000000,-0.010472,-0.041888
1608115983796,1608115983802,-4.844485,-10.551955,0.382459,1608115983795,-0.005236,-0.120428,0.001745
1608115983813,1608115983822,-2.157463,-11.924886,-1.392544,1608115983811,-0.055851,-0.026180,-0.024435
1608115983830,1608115983837,-5.834957,-9.286898,-1.274864,1608115983827,-0.010472,0.080285,-0.076794
1608115983863,1608115983869,2.294756,-8.188553,5.874183,1608115983862,0.005236,-0.144862,0.017453
1608115983880,1608115983888,-0.362846,-10.208722,0.833565,1608115983878,-0.017453,-0.069813,0.012217
1608115983897,1608115983892,0.029420,-9.228058,5.736890,1608115983894,0.019199,-0.024435,0.012217
1608115983913,1608115983920,1.755390,-8.727919,1.608291,1608115983912,-0.026180,0.005236,-0.005236
1608115983930,1608115983936,-2.216303,-11.140354,3.040061,1608115983929,-0.008727,0.017453,-0.006981
1608115983947,1608115983955,0.931632,-8.502365,1.588677,1608115983945,0.022689,-0.020944,-0.012217
1608115983964,1608115983971,-4.609126,-10.512729,-1.627904,1608115983962,0.066323,0.087266,0.012217
1608115983980,1608115983987,4.550285,-7.658993,2.029977,1608115983980,0.008727,0.038397,0.012217
1608115983997,1608115984003,-8.423912,-11.316874,8.139520,1608115983996,-0.005236,0.031416,0.000000
1608115984014,1608115984022,-2.412436,-9.708583,1.716164,1608115984012,-0.036652,-0.012217,0.010472
1608115984031,1608115984038,3.903047,-8.992698,0.362846,1608115984030,0.062832,-0.094248,-0.040143
1608115984047,1608115984054,11.777786,-9.208445,8.786758,1608115984046,0.003491,-0.171042,-0.012217
1608115984064,1608115984070,-2.029977,-10.051816,-14.974754,1608115984063,-0.076794,0.048869,0.017453
1608115984081,1608115984090,0.686466,-9.590903,-0.784532,1608115984080,-0.017453,0.000000,-0.019199
1608115984098,1608115984106,0.627626,-8.208166,-7.178468,1608115984096,-0.024435,0.073304,-0.047124
1608115984114,1608115984122,0.205940,-12.444638,2.520309,1608115984113,0.055851,0.104720,-0.059341
1608115984131,1608115984138,6.756782,-7.364794,-1.225831,1608115984130,0.057596,-0.075049,-0.064577
1608115984148,1608115984158,9.169217,-10.238142,-2.373209,1608115984147,0.120428,-0.178024,-0.059341
1608115984165,1608115984174,3.000835,-8.463139,2.079010,1608115984164,0.045379,-0.095993,0.017453
1608115984181,1608115984190,-5.413270,-10.169496,6.109543,1608115984181,0.057596,-0.052360,0.095993
1608115984198,1608115984206,4.687579,-8.982891,1.235638,1608115984197,-0.031416,-0.258309,0.038397
1608115984215,1608115984226,-1.912297,-9.630130,2.294756,1608115984215,0.052360,0.036652,-0.066323
1608115984232,1608115984242,3.500974,-11.983726,2.981221,1608115984230,0.000000,-0.148353,-0.041888
1608115984249,1608115984258,-14.739394,-16.063292,-12.885938,1608115984247,0.082030,0.167552,-0.045379
1608115984265,1608115984274,-0.568786,-6.580262,17.691196,1608115984264,0.010472,-0.087266,-0.104720
1608115984282,1608115984294,5.226944,-11.581654,1.049312,1608115984280,0.130900,-0.062832,-0.054105
1608115984299,1608115984310,-6.031090,-0.970858,13.827376,1608115984297,-0.092502,-0.061087,0.031416
1608115984316,1608115984326,-11.679720,-9.149604,-4.128600,1608115984315,-0.055851,0.022689,-0.031416
1608115984332,1608115984341,-2.853735,-13.994089,-6.089930,1608115984331,0.012217,-0.020944,-0.061087
1608115984349,1608115984361,0.451106,-8.963278,0.970858,1608115984348,0.038397,-0.095993,-0.038397
1608115984366,1608115984377,13.484143,-7.864933,5.874183,1608115984365,0.059341,-0.242601,-0.059341
1608115984386,1608115984397,-6.393936,-15.955420,-4.628739,1608115984385,-0.017453,0.141372,0.057596
1608115984403,1608115984413,1.225831,-8.100293,7.001948,1608115984402,0.022689,-0.132645,0.087266
1608115984420,1608115984433,-0.686466,-14.131382,-5.266171,1608115984419,0.036652,-0.015708,-0.062832
1608115984437,1608115984449,10.316595,-10.091043,6.129156,1608115984435,0.069813,0.064577,-0.020944
1608115984454,1608115984465,-3.363681,-6.815621,3.844207,1608115984452,-0.090757,0.047124,0.010472
1608115984470,1608115984481,1.951523,-10.551955,2.137850,1608115984469,0.005236,-0.059341,-0.006981
1608115984487,1608115984501,5.246558,-9.090764,3.540200,1608115984486,-0.061087,0.024435,-0.048869
1608115984504,1608115984517,-6.815621,-13.150718,-3.824593,1608115984504,0.005236,0.059341,0.006981
1608115984521,1608115984533,-1.470997,-7.678607,9.934136,1608115984519,0.048869,0.045379,0.031416
1608115984538,1608115984549,2.863542,-11.797400,8.786758,1608115984536,0.057596,-0.123918,0.033161
1608115984555,1608115984569,-6.894075,-4.971972,15.317986,1608115984554,0.047124,0.041888,-0.057596
1608115984571,1608115984585,7.462861,-10.453889,4.001113,1608115984570,-0.101229,-0.115192,-0.020944
1608115984588,1608115984589,-7.276534,-8.982891,2.863542,1608115984574,-0.026180,0.165806,-0.048869
1608115984625,1608115984621,-4.991585,-9.247671,-5.913410,1608115984625,-0.001745,-0.045379,0.000000
1608115984642,1608115984657,1.637710,-6.560649,6.109543,1608115984641,0.047124,-0.075049,0.024435
1608115984659,1608115984673,-1.166991,-14.150995,4.530672,1608115984659,0.041888,-0.040143,-0.006981
1608115984676,1608115984689,-11.199194,-10.257755,4.648352,1608115984674,0.062832,0.144862,-0.003491
1608115984692,1608115984709,7.521700,-11.699333,1.873070,1608115984691,-0.050615,-0.129154,-0.008727
1608115984709,1608115984725,2.461469,-6.658715,10.375436,1608115984708,-0.082030,-0.034907,0.024435
1608115984726,1608115984741,-10.993255,-10.875574,-3.344068,1608115984725,-0.099484,-0.036652,-0.027925
1608115984743,1608115984757,-6.335096,-12.601545,-17.769650,1608115984741,-0.075049,0.102974,-0.062832
1608115984760,1608115984777,18.132496,-6.129156,0.647239,1608115984759,0.000000,-0.326377,0.089012
1608115984776,1608115984789,8.904438,-9.110377,4.363959,1608115984775,0.116937,-0.209440,0.113446
1608115984793,1608115984809,-2.677215,-15.053207,3.500974,1608115984791,0.062832,-0.040143,0.061087
1608115984810,1608115984825,3.059675,-13.905829,-8.345459,1608115984809,-0.024435,-0.006981,-0.003491
1608115984827,1608115984845,6.776395,-18.132496,-6.933301,1608115984825,0.033161,-0.082030,0.022689
1608115984843,1608115984861,2.235916,-10.071429,2.716442,1608115984843,-0.076794,0.111701,-0.017453
1608115984860,1608115984877,1.470997,-0.931632,18.750315,1608115984859,-0.033161,0.078540,0.010472
1608115984877,1608115984893,5.991863,-12.503478,-17.946169,1608115984875,-0.125664,-0.031416,0.031416
1608115984894,1608115984897,-2.392823,-1.814230,14.690361,1608115984878,0.066323,0.188496,-0.019199
1608115984933,1608115984945,-3.726527,-9.688970,4.001113,1608115984932,-0.017453,-0.013963,0.024435
1608115984950,1608115984969,-0.568786,-14.670748,-5.413270,1608115984949,-0.036652,0.055851,-0.015708
1608115984966,1608115984985,-11.012868,-14.337322,0.588399,1608115984965,-0.022689,0.106465,-0.003491
1608115984983,1608115985001,-8.943665,-12.160246,-4.913132,1608115984983,-0.050615,0.057596,-0.017453
1608115985000,1608115985021,0.549172,-9.453610,-8.080679,1608115984999,-0.054105,0.071558,-0.022689
1608115985017,1608115985037,-0.009807,-8.227779,-5.874183,1608115985015,0.000000,0.122173,-0.029671
1608115985033,1608115985052,8.080679,-6.952915,8.904438,1608115985033,0.048869,-0.111701,0.010472
1608115985050,1608115985068,-0.813952,-9.532063,0.225553,1608115985049,0.001745,-0.033161,-0.010472
1608115985067,1608115985088,-9.649743,-14.494228,-4.805258,1608115985065,0.005236,0.212930,-0.055851
1608115985084,1608115985103,0.951245,-10.973641,4.805258,1608115985083,0.031416,-0.068068,-0.012217
1608115985101,1608115985115,-0.205940,-15.680833,-5.668243,1608115985100,-0.008727,-0.157080,0.062832
1608115985117,1608115985135,0.568786,-13.003617,-2.922382,1608115985116,-0.045379,-0.162316,0.066323
1608115985134,1608115985155,8.865211,-7.462861,2.716442,1608115985133,-0.141372,-0.207694,-0.005236
1608115985151,1608115985170,5.776117,-11.277647,-2.275143,1608115985149,0.000000,-0.020944,0.010472
1608115985168,1608115985186,6.031090,-7.904160,3.883433,1608115985166,-0.026180,-0.130900,0.024435
1608115985184,1608115985202,-4.403186,-10.336209,2.412436,1608115985183,0.022689,0.022689,0.020944
1608115985201,1608115985221,8.247393,-10.934415,2.481082,1608115985199,0.006981,0.013963,-0.012217
1608115985218,1608115985237,11.777786,-10.738281,15.955420,1608115985217,0.026180,-0.144862,0.047124
1608115985235,1608115985253,3.079288,-15.219920,-0.912018,1608115985233,-0.068068,-0.054105,0.080285
1608115985251,1608115985269,-11.522814,-8.561205,0.813952,1608115985250,-0.101229,0.099484,0.041888
1608115985268,1608115985284,-7.619767,-10.973641,-2.157463,1608115985268,-0.087266,-0.083776,-0.027925
1608115985285,1608115985296,-2.696829,-8.119906,-1.833843,1608115985284,-0.024435,-0.031416,-0.019199
1608115985302,1608115985320,2.981221,-9.649743,-3.942273,1608115985300,0.000000,-0.005236,0.005236
1608115985318,1608115985335,2.392823,-7.296147,9.767424,1608115985318,0.038397,-0.089012,0.040143
1608115985335,1608115985355,9.669356,-10.591182,7.158854,1608115985334,0.022689,-0.207694,0.068068
1608115985352,1608115985371,12.581932,-9.532063,9.129991,1608115985351,0.012217,-0.137881,0.082030
1608115985369,1608115985387,-13.346850,-8.208166,4.059953,1608115985368,-0.001745,0.129154,0.052360
1608115985385,1608115985402,-11.463974,-8.365072,-8.188553,1608115985384,-0.101229,0.214676,-0.075049
1608115985410,1608115985418,-2.539922,-12.326959,4.481639,1608115985410,-0.122173,-0.082030,-0.061087
1608115985427,1608115985442,7.364794,-2.814508,11.483587,1608115985426,-0.005236,-0.045379,-0.019199
1608115985444,1608115985461,-11.866046,-13.935249,-13.729310,1608115985443,0.029671,0.244346,-0.106465
1608115985460,1608115985477,-14.494228,-9.453610,8.345459,1608115985459,0.101229,0.443314,-0.012217
1608115985477,1608115985493,-6.658715,-11.483587,-2.059397,1608115985477,0.034907,-0.214676,0.104720
1608115985494,1608115985504,-10.238142,-12.503478,-4.001113,1608115985493,0.026180,-0.422370,0.130900
1608115985511,1608115985524,-11.159967,-11.120741,15.798512,1608115985510,-0.089012,-0.174533,0.059341
1608115985527,1608115985544,-1.166991,-5.854570,-7.600153,1608115985527,-0.006981,-0.160570,-0.181514
1608115985544,1608115985563,30.371195,-9.404577,3.216581,1608115985543,0.085521,-0.003491,-0.113446
1608115985561,1608115985579,31.253794,-7.237308,11.218807,1608115985560,0.040143,-0.225147,0.064577
1608115985578,1608115985595,16.063292,-12.003340,10.375436,1608115985577,-0.006981,-0.294961,0.171042
1608115985595,1608115985611,1.775004,-12.385798,1.833843,1608115985593,-0.055851,-0.176278,0.073304
1608115985611,1608115985630,-7.119628,-14.288289,-3.461747,1608115985610,-0.075049,0.055851,0.005236
1608115985628,1608115985646,-1.235638,-8.247393,-5.207331,1608115985627,-0.116937,0.120428,-0.024435
1608115985645,1608115985662,2.039783,-9.551677,5.128878,1608115985644,-0.034907,-0.029671,-0.010472
1608115985662,1608115985677,4.844485,-10.316595,0.813952,1608115985661,-0.040143,0.181514,0.000000
1608115985679,1608115985697,0.608012,-8.178746,10.414662,1608115985677,-0.052360,0.321141,0.024435
1608115985695,1608115985713,-1.814230,-9.767424,-3.196968,1608115985694,-0.076794,0.129154,0.038397
1608115985712,1608115985729,-0.402073,-6.256642,-2.255529,1608115985711,-0.029671,-0.062832,0.141372
1608115985729,1608115985744,-3.883433,-11.718946,4.550285,1608115985727,-0.015708,0.068068,0.113446
1608115985746,1608115985764,-11.179581,-8.708305,-0.470719,1608115985744,-0.050615,0.048869,0.020944
1608115985762,1608115985780,-3.863820,-11.356100,-4.746418,1608115985761,-0.094248,0.401426,-0.076794
1608115985779,1608115985795,-1.637710,-11.924886,-7.158854,1608115985778,-0.139626,0.347321,0.003491
1608115985796,1608115985811,-2.314369,-9.345737,-5.736890,1608115985795,-0.068068,0.427606,0.075049
1608115985813,1608115985831,15.474894,-10.816734,-1.608291,1608115985812,-0.057596,-0.223402,0.144862
1608115985830,1608115985847,3.844207,-11.562040,3.638267,1608115985828,0.036652,-0.197222,0.132645
1608115985846,1608115985862,-10.836348,-8.580818,1.490611,1608115985846,-0.003491,0.354302,-0.085521
1608115985863,1608115985878,-17.995203,-12.503478,-9.855683,1608115985862,-0.027925,0.267035,-0.122173
1608115985880,1608115985898,20.986231,-6.217416,9.492837,1608115985879,-0.015708,-0.045379,-0.038397
1608115985897,1608115985913,-0.608012,-8.943665,-1.549451,1608115985896,0.022689,-0.054105,0.024435
1608115985914,1608115985929,-18.152109,-10.777508,-0.451106,1608115985913,0.047124,0.218166,-0.071558
1608115985930,1608115985945,-11.258034,-17.102797,-3.461747,1608115985929,0.043633,0.260054,-0.111701
1608115985947,1608115985964,7.884546,-11.032481,3.324454,1608115985946,0.075049,-0.420624,-0.020944
1608115985964,1608115985980,-0.627626,-10.757895,3.540200,1608115985963,-0.005236,-0.020944,-0.083776
1608115985980,1608115985996,6.472389,-9.414384,4.040339,1608115985979,0.003491,-0.038397,0.003491
1608115985997,1608115986012,-1.696550,-6.913688,8.904438,1608115985996,0.022689,-0.092502,0.055851
1608115986014,1608115986031,-2.177076,-8.325846,0.431493,1608115986013,0.017453,-0.150098,0.034907
1608115986031,1608115986047,1.470997,-6.158576,8.365072,1608115986029,-0.062832,-0.082030,0.034907
1608115986047,1608115986063,2.696829,-10.993255,1.873070,1608115986046,-0.036652,-0.052360,0.101229
1608115986064,1608115986078,17.632357,-8.061066,13.709697,1608115986063,-0.038397,-0.307178,0.136136
1608115986081,1608115986098,-7.384407,-11.718946,-4.491446,1608115986079,-0.045379,-0.368264,0.151844
1608115986098,1608115986114,-12.464252,-9.031924,-2.392823,1608115986097,-0.082030,0.396190,0.026180
1608115986114,1608115986130,-16.318266,-14.249063,-10.375436,1608115986113,-0.123918,0.438078,-0.005236
1608115986131,1608115986145,8.502365,-6.138963,11.503201,1608115986130,-0.123918,0.027925,-0.005236
1608115986148,1608115986165,-14.553068,-12.121019,-6.717555,1608115986146,-0.125664,0.551524,-0.006981
1608115986165,1608115986181,11.140354,-9.306511,8.139520,1608115986163,-0.008727,0.403171,0.029671
1608115986182,1608115986196,6.433162,-6.796008,-8.159133,1608115986180,-0.012217,-0.235619,0.148353
1608115986198,1608115986212,16.406525,-6.952915,28.723677,1608115986196,0.066323,-0.263545,0.095993
1608115986215,1608115986232,-15.396441,-8.443525,-0.490332,1608115986213,-0.164061,-0.265290,0.047124
1608115986232,1608115986248,0.431493,-2.373209,13.974476,1608115986231,0.029671,0.057596,-0.061087
1608115986249,1608115986263,-6.109543,-15.376827,-11.277647,1608115986247,0.027925,0.017453,-0.062832
1608115986265,1608115986279,-7.639380,-16.788984,-17.651970,1608115986265,0.113446,-0.047124,0.019199
1608115986282,1608115986299,-18.877800,-13.631243,-0.892405,1608115986280,0.020944,-0.029671,-0.001745
1608115986299,1608115986314,-15.033594,-6.737168,7.423634,1608115986297,0.027925,-0.038397,-0.108210
1608115986316,1608115986330,-5.874183,-7.766867,1.608291,1608115986315,0.094248,0.001745,-0.095993
1608115986332,1608115986346,19.319099,-3.540200,8.325846,1608115986331,-0.005236,-0.261799,0.034907
1608115986349,1608115986366,-8.629851,-10.757895,-12.042566,1608115986347,0.020944,-0.254818,0.094248
1608115986366,1608115986381,0.166713,-12.601545,9.816457,1608115986365,0.013963,0.127409,0.041888
1608115986383,1608115986397,6.472389,-7.904160,0.186326,1608115986381,-0.111701,-0.113446,0.094248
1608115986400,1608115986413,15.141467,-7.384407,4.148213,1608115986398,-0.006981,-0.305433,0.075049
1608115986419,1608115986429,17.406803,-11.522814,-4.363959,1608115986419,0.008727,-0.101229,-0.019199
1608115986436,1608115986452,-8.080679,-12.984004,-13.091877,1608115986435,0.006981,0.244346,-0.089012
1608115986453,1608115986468,-8.119906,-11.483587,4.020726,1608115986451,0.017453,0.642281,-0.017453
1608115986470,1608115986484,22.349356,-8.100293,5.874183,1608115986468,-0.094248,-0.008727,0.017453
1608115986486,1608115986499,9.571290,-7.658993,13.003617,1608115986485,-0.019199,-0.052360,0.089012
1608115986503,1608115986519,-22.084576,-9.914523,-7.639380,1608115986502,-0.078540,0.113446,0.083776
1608115986520,1608115986535,-11.140354,-13.229171,-8.178746,1608115986520,-0.057596,0.080285,-0.054105
1608115986537,1608115986551,4.511059,-10.169496,-1.775004,1608115986536,-0.036652,-0.047124,-0.036652
1608115986554,1608115986566,13.592016,-5.432884,3.706914,1608115986552,-0.006981,-0.270526,-0.010472
1608115986570,1608115986586,-2.373209,-13.091877,-8.345459,1608115986570,0.054105,-0.048869,-0.034907
1608115986587,1608115986602,-19.858465,-13.611629,-6.933301,1608115986586,0.108210,0.312414,-0.038397
1608115986604,1608115986617,-1.990750,-11.758173,3.599041,1608115986603,0.022689,0.000000,-0.066323
1608115986621,1608115986633,-7.443247,-11.660107,5.413270,1608115986620,0.059341,-0.043633,-0.024435
1608115986638,1608115986653,-5.687857,-6.217416,11.758173,1608115986636,-0.001745,-0.286234,-0.010472
1608115986654,1608115986669,-16.906664,-14.092155,1.392544,1608115986653,0.031416,-0.214676,-0.003491
1608115986671,1608115986684,-24.840244,-10.051816,-14.974754,1608115986670,-0.075049,0.237365,-0.062832
1608115986688,1608115986700,12.689805,-7.462861,14.651134,1608115986686,0.122173,-0.254818,-0.038397
1608115986705,1608115986720,-6.756782,-8.561205,-0.382459,1608115986704,-0.059341,0.113446,-0.022689
1608115986721,1608115986735,-7.404021,-11.336487,-13.670470,1608115986720,0.012217,0.118682,-0.068068
1608115986738,1608115986751,5.109264,-4.785645,26.595634,1608115986736,0.094248,0.178024,-0.057596
1608115986755,1608115986767,9.767424,-10.914802,1.088538,1608115986754,0.094248,-0.001745,0.000000
1608115986772,1608115986787,-6.639102,-5.226944,20.280151,1608115986770,0.055851,0.230383,0.015708
1608115986788,1608115986802,-8.404299,-14.033316,-18.348242,1608115986787,-0.026180,0.200713,-0.047124
1608115986805,1608115986818,5.707470,-6.756782,16.484978,1608115986804,-0.001745,-0.179769,-0.001745
1608115986822,1608115986830,11.983726,-4.726805,24.379332,1608115986821,0.006981,0.357792,-0.059341
1608115986839,1608115986853,10.414662,-10.355823,13.788150,1608115986837,-0.057596,0.270526,-0.057596
1608115986855,1608115986869,3.500974,-11.414940,-11.542427,1608115986854,-0.048869,-0.054105,0.095993
1608115986872,1608115986885,3.040061,-8.767145,2.902768,1608115986871,0.033161,-0.109956,0.064577
1608115986889,1608115986901,14.533455,-4.128600,10.238142,1608115986889,0.066323,-0.123918,-0.017453
1608115986906,1608115986916,-1.225831,-8.825985,-1.510224,1608115986904,0.062832,0.378736,-0.108210
1608115986922,1608115986932,-5.736890,-14.553068,-2.677215,1608115986921,0.012217,0.212930,-0.097738
1608115986939,1608115986948,-16.063292,-12.689805,-1.225831,1608115986939,0.036652,-0.502655,0.082030
1608115986956,1608115986967,3.981500,-11.297260,5.128878,1608115986955,0.043633,-0.130900,0.003491
1608115986973,1608115986987,1.431771,-9.286898,11.238420,1608115986971,-0.043633,0.040143,-0.061087
1608115986990,1608115987003,16.043678,-15.582767,-5.030811,1608115986989,-0.059341,-0.253073,0.031416
1608115987006,1608115987019,-15.739673,-10.208722,0.706079,1608115987005,-0.076794,0.095993,0.061087
1608115987023,1608115987034,0.549172,-11.101128,-3.138128,1608115987022,-0.095993,-0.080285,0.034907
1608115987040,1608115987050,3.657880,-7.080401,1.470997,1608115987039,-0.027925,0.226893,0.041888
1608115987057,1608115987062,-1.951523,-9.384964,3.040061,1608115987056,-0.015708,0.331613,-0.003491
1608115987074,1608115987070,-6.580262,-11.434553,4.687579,1608115987071,-0.047124,0.024435,0.052360
1608115987090,1608115987081,-3.599041,-6.295869,11.101128,1608115987090,-0.097738,0.303687,0.062832
1608115987107,1608115987093,10.473502,-7.943386,9.934136,1608115987107,-0.068068,0.106465,0.071558
1608115987124,1608115987113,3.020448,-11.061901,1.088538,1608115987123,-0.040143,0.432842,0.050615
1608115987141,1608115987129,22.467035,-7.845320,10.914802,1608115987140,0.000000,0.080285,0.061087
1608115987157,1608115987137,-0.490332,-9.306511,6.511615,1608115987155,0.027925,0.010472,0.048869
1608115987174,1608115987156,-9.208445,-12.827098,-14.994368,1608115987174,0.087266,0.008727,-0.043633
1608115987191,1608115987184,17.161636,-5.933023,12.464252,1608115987190,0.024435,0.153589,-0.080285
1608115987208,1608115987207,11.905272,-9.345737,15.680833,1608115987207,0.106465,0.069813,-0.024435
1608115987224,1608115987235,-5.452497,-8.521978,4.265893,1608115987223,-0.026180,-0.094248,0.052360
1608115987241,1608115987255,6.197803,-17.210670,-5.285784,1608115987239,0.024435,-0.172788,0.006981
1608115987275,1608115987286,-5.854570,-5.756504,1.912297,1608115987274,-0.078540,-0.080285,0.092502
1608115987291,1608115987302,6.492002,-9.267284,-6.315483,1608115987291,-0.034907,-0.115192,0.013963
1608115987308,1608115987322,5.707470,-7.766867,-10.395049,1608115987308,-0.062832,0.043633,-0.015708
1608115987325,1608115987337,2.657602,-8.100293,9.228058,1608115987324,0.010472,0.260054,0.020944
1608115987342,1608115987353,-11.218807,-7.364794,0.608012,1608115987341,-0.031416,0.383972,0.054105
1608115987359,1608115987369,-6.413549,-12.307345,-4.903325,1608115987358,-0.006981,-0.164061,0.068068
1608115987375,1608115987388,-13.866603,-23.535959,-27.193840,1608115987374,0.047124,0.113446,-0.094248
1608115987392,1608115987404,11.522814,-8.188553,5.413270,1608115987391,0.026180,0.050615,-0.048869
1608115987409,1608115987420,-2.461469,-8.767145,4.824872,1608115987408,0.113446,-0.024435,0.129154
1608115987431,1608115987444,1.353318,-14.994368,-14.553068,1608115987429,0.054105,0.294961,-0.064577
1608115987447,1608115987459,12.121019,-6.541035,15.180694,1608115987446,0.125664,0.310669,-0.099484
1608115987464,1608115987475,2.432049,-15.200307,4.746418,1608115987463,0.190241,-0.092502,0.026180
1608115987481,1608115987491,19.319099,-13.709697,6.599875,1608115987480,0.106465,-0.490438,0.064577
1608115987498,1608115987510,-19.838852,-6.639102,11.042288,1608115987498,0.078540,0.310669,0.038397
1608115987515,1608115987522,-22.653360,-10.836348,7.541314,1608115987514,0.073304,-0.027925,-0.214676
1608115987531,1608115987542,28.517738,-19.721172,-5.736890,1608115987531,0.268781,-0.535816,-0.260054
1608115987548,1608115987562,-3.726527,-16.406525,-9.787037,1608115987548,0.106465,0.167552,-0.195477
1608115987565,1608115987577,39.226601,-20.142859,6.599875,1608115987564,0.427606,-0.687660,0.001745
1608115987582,1608115987593,-36.735710,-9.267284,11.483587,1608115987580,0.354302,-0.432842,0.162316
1608115987599,1608115987609,-24.899084,-10.169496,-7.139241,1608115987598,0.476475,-0.062832,-0.493928
1608115987616,1608115987628,31.469540,-6.982335,3.285228,1608115987614,0.275762,-0.523599,-0.287979
1608115987632,1608115987644,-10.493115,-16.043678,-22.731813,1608115987631,0.153589,-0.225147,-0.003491
1608115987649,1608115987660,-10.777508,-10.757895,25.683617,1608115987648,0.167552,0.328122,0.048869
1608115987666,1608115987672,-39.206985,-14.670748,-0.049033,1608115987665,-0.111701,0.174533,-0.066323
1608115987683,1608115987691,16.122131,-19.015095,-28.645224,1608115987682,-0.061087,-0.078540,-0.106465
1608115987699,1608115987711,7.825706,-2.118236,-24.094938,1608115987698,-0.404916,0.108210,0.045379
1608115987716,1608115987727,-4.511059,-6.335096,-9.787037,1608115987715,-0.212930,0.143117,0.127409
1608115987733,1608115987743,-3.344068,7.806093,24.938311,1608115987732,-0.176278,-0.101229,0.054105
1608115987750,1608115987762,16.700724,-2.755669,5.070038,1608115987748,-0.232129,0.040143,-0.101229
1608115987766,1608115987778,6.815621,-4.020726,-0.804145,1608115987765,-0.254818,0.052360,-0.026180
1608115987783,1608115987794,-15.563153,-6.197803,-10.659828,1608115987782,-0.160570,0.308923,0.075049
1608115987800,1608115987809,-8.924051,-4.903325,-8.610238,1608115987799,-0.108210,0.099484,-0.041888
1608115987817,1608115987829,16.141745,-11.944499,-7.100014,1608115987815,0.034907,0.179769,-0.050615
1608115987833,1608115987845,6.256642,-8.188553,1.353318,1608115987832,0.066323,0.061087,0.075049
1608115987850,1608115987861,-9.728196,-8.884825,-5.893796,1608115987849,-0.066323,0.164061,0.071558
1608115987867,1608115987876,9.090764,-3.177355,6.393936,1608115987865,-0.151844,-0.068068,0.029671
1608115987884,1608115987892,31.214565,-11.777786,1.470997,1608115987883,-0.200713,-0.122173,0.102974
1608115987900,1608115987912,-8.100293,-5.707470,1.206218,1608115987899,-0.172788,0.251327,0.068068
1608115987917,1608115987924,-14.915915,-8.325846,-10.257755,1608115987917,-0.202458,0.106465,0.080285
1608115987934,1608115987943,8.541592,-1.735777,4.020726,1608115987932,-0.183260,0.055851,0.123918
1608115987951,1608115987959,5.354431,-10.699055,-21.809990,1608115987949,-0.120428,0.033161,0.193732
1608115987967,1608115987979,-8.904438,-6.138963,-8.041452,1608115987967,-0.076794,0.000000,0.094248
1608115987984,1608115987994,3.098901,-9.149604,-7.060788,1608115987982,-0.057596,-0.031416,0.022689
1608115988001,1608115988010,13.062457,-7.237308,-3.442134,1608115987999,-0.036652,-0.122173,0.031416
1608115988018,1608115988026,-12.081793,-9.532063,-9.453610,1608115988016,-0.040143,0.263545,-0.010472
1608115988035,1608115988046,9.345737,-10.091043,-0.813952,1608115988033,-0.031416,-0.427606,-0.031416
1608115988051,1608115988061,0.588399,-9.855683,-18.818960,1608115988049,-0.017453,-0.108210,-0.064577
1608115988068,1608115988077,-7.364794,-4.148213,-1.392544,1608115988067,0.019199,0.176278,-0.038397
1608115988085,1608115988097,-3.216581,-5.913410,-1.735777,1608115988083,0.005236,0.282743,0.027925
1608115988102,1608115988113,-2.677215,-6.933301,-7.080401,1608115988101,0.041888,-0.417134,0.015708
1608115988118,1608115988129,1.088538,-11.238420,-14.150995,1608115988117,0.003491,-0.162316,-0.120428
1608115988135,1608115988145,12.562319,-4.246279,3.520587,1608115988133,0.064577,-0.343830,-0.041888
1608115988152,1608115988161,-19.034708,-15.455280,-21.005844,1608115988151,-0.085521,0.396190,-0.055851
1608115988169,1608115988181,-3.785367,-8.992698,-6.335096,1608115988167,0.015708,0.012217,-0.029671
1608115988185,1608115988197,5.550564,-10.875574,-8.267006,1608115988184,0.012217,-0.116937,-0.062832
1608115988202,1608115988213,14.896301,-4.991585,2.118236,1608115988201,0.057596,-0.019199,-0.101229
1608115988219,1608115988232,-5.413270,-9.071151,-0.509946,1608115988217,-0.036652,0.148353,0.012217
1608115988236,1608115988248,-12.219086,-0.127486,-2.736055,1608115988234,-0.078540,0.034907,0.115192
1608115988253,1608115988264,0.127486,-5.776117,2.255529,1608115988251,-0.073304,-0.141372,0.012217
1608115988269,1608115988280,0.205940,-11.905272,-13.846990,1608115988268,-0.158825,-0.134390,0.013963
1608115988286,1608115988296,3.540200,-13.042844,-15.582767,1608115988286,-0.167552,0.314159,-0.123918
1608115988303,1608115988304,12.621159,-6.178189,-8.286619,1608115988302,-0.115192,0.095993,0.015708
1608115988320,1608115988324,-10.336209,-1.569064,-21.143137,1608115988319,-0.139626,0.223402,0.102974
1608115988336,1608115988348,14.778621,-4.883712,-10.228335,1608115988336,-0.092502,-0.443314,0.120428
1608115988353,1608115988364,19.799625,1.147378,16.220200,1608115988352,0.129154,-0.427606,0.061087
1608115988370,1608115988384,-28.321604,-9.728196,-12.219086,1608115988369,0.017453,0.000000,-0.001745
1608115988387,1608115988400,-17.887329,-0.166713,5.756504,1608115988386,0.097738,0.226893,-0.148353
1608115988403,1608115988416,-5.913410,-16.161358,-24.938311,1608115988402,-0.055851,0.047124,-0.104720
1608115988420,1608115988432,-6.217416,1.294478,-0.872792,1608115988418,0.003491,-0.068068,-0.068068
1608115988441,1608115988456,24.163586,-3.344068,6.952915,1608115988441,0.087266,-0.474730,0.160570
1608115988458,1608115988471,1.833843,-13.444917,-17.465643,1608115988457,-0.015708,-0.464258,0.178024
1608115988475,1608115988487,-11.660107,-3.765754,0.804145,1608115988474,0.071558,-0.157080,-0.045379
1608115988492,1608115988507,9.169217,-0.666852,-12.807485,1608115988490,-0.115192,0.038397,-0.211185
1608115988509,1608115988523,5.530951,-0.470719,-2.579149,1608115988507,-0.080285,0.022689,-0.041888
1608115988525,1608115988539,-17.985395,-10.130269,-7.698220,1608115988524,-0.022689,-0.020944,0.095993
1608115988542,1608115988555,-36.157116,-12.925164,-33.627003,1608115988541,-0.012217,0.502655,-0.122173
1608115988559,1608115988575,10.934415,-8.502365,-5.511337,1608115988557,0.050615,0.216421,-0.200713
1608115988576,1608115988591,8.404299,-7.884546,-17.367577,1608115988575,0.047124,-0.310669,0.017453
1608115988592,1608115988607,4.766032,-11.395327,9.787037,1608115988592,0.071558,-0.225147,0.052360
1608115988609,1608115988623,-11.179581,-10.757895,-21.947283,1608115988607,0.008727,-0.094248,-0.005236
1608115988626,1608115988643,2.333983,-3.285228,-2.520309,1608115988625,0.024435,0.033161,-0.083776
1608115988660,1608115988675,9.365351,-13.307624,-9.453610,1608115988658,0.075049,-0.272271,0.043633
1608115988676,1608115988691,18.671862,-10.679441,-6.413549,1608115988675,-0.015708,-0.020944,-0.005236
1608115988693,1608115988711,-18.250175,-9.384964,-24.722565,1608115988692,0.090757,0.038397,0.008727
1608115988710,1608115988727,-16.298653,-8.502365,-14.072542,1608115988710,0.031416,0.146608,-0.069813
1608115988727,1608115988742,-6.138963,-4.687579,-4.609126,1608115988725,0.071558,0.082030,-0.085521
1608115988744,1608115988758,10.934415,-0.568786,-0.686466,1608115988742,0.055851,-0.178024,-0.006981
1608115988760,1608115988770,-4.187439,-7.001948,-5.128878,1608115988759,-0.041888,0.076794,0.048869
1608115988777,1608115988794,15.219920,4.305119,22.349356,1608115988776,0.054105,-0.219911,0.057596
1608115988794,1608115988806,12.258312,-8.482752,-6.315483,1608115988793,-0.186750,-0.287979,0.095993
1608115988811,1608115988826,-1.225831,-9.914523,-14.759007,1608115988810,-0.183260,0.289725,-0.017453
1608115988827,1608115988842,-15.759286,-12.405412,-14.974754,1608115988826,-0.204204,0.497419,-0.057596
1608115988844,1608115988858,-20.280151,0.451106,0.451106,1608115988843,0.068068,0.326377,-0.101229
1608115988861,1608115988874,12.787871,-9.384964,-17.269510,1608115988860,0.000000,0.031416,-0.047124
1608115988878,1608115988890,25.046183,-12.729032,-13.346850,1608115988877,0.001745,0.249582,0.012217
1608115988894,1608115988902,4.363959,-2.755669,-10.610795,1608115988893,-0.062832,0.305433,0.036652
1608115988911,1608115988910,-24.379332,-13.111491,-30.449648,1608115988909,-0.078540,-0.263545,0.106465
1608115988928,1608115988926,-4.040339,-7.982613,-8.423912,1608115988927,-0.024435,0.232129,0.003491
1608115988945,1608115988942,9.012311,-8.963278,-8.443525,1608115988944,0.012217,-0.130900,0.073304
1608115988961,1608115988962,3.040061,-6.217416,1.637710,1608115988961,-0.012217,0.085521,-0.057596
1608115988978,1608115988974,8.119906,-3.706914,-3.461747,1608115988978,0.116937,-0.080285,-0.001745
1608115988995,1608115988982,-3.157741,-10.110656,-19.034708,1608115988993,0.083776,-0.129154,0.055851
1608115989012,1608115988994,13.444917,-3.442134,-11.454167,1608115989011,0.059341,0.069813,-0.027925
1608115989029,1608115989006,7.639380,-6.717555,-6.639102,1608115989028,0.001745,-0.012217,-0.064577
1608115989045,1608115989026,2.902768,-4.913132,-5.207331,1608115989045,0.005236,0.034907,0.026180
1608115989062,1608115989049,21.123524,-6.197803,3.579427,1608115989061,0.013963,-0.082030,-0.069813
1608115989079,1608115989085,10.189109,1.372931,9.914523,1608115989077,0.176278,-0.193732,-0.041888
1608115989096,1608115989117,-5.570177,-7.678607,-5.491724,1608115989094,0.048869,0.012217,0.171042
1608115989112,1608115989133,-18.289402,-8.100293,-4.971972,1608115989111,0.017453,0.022689,0.061087
1608115989129,1608115989148,-3.559814,-6.129156,-3.304841,1608115989128,-0.115192,0.169297,-0.160570
1608115989146,1608115989164,17.289124,-1.951523,2.981221,1608115989145,-0.022689,0.019199,0.026180
1608115989163,1608115989184,-20.486092,-6.413549,-5.795730,1608115989162,-0.115192,0.357792,0.073304
1608115989180,1608115989199,-10.130269,-8.541592,1.372931,1608115989179,-0.064577,0.020944,-0.022689
1608115989196,1608115989215,17.102797,-12.199472,-23.957645,1608115989195,-0.130900,-0.143117,-0.027925
1608115989213,1608115989235,11.522814,-7.335374,-8.384686,1608115989212,-0.064577,0.071558,0.055851
1608115989230,1608115989251,-4.511059,-7.315761,-10.640215,1608115989229,-0.143117,0.022689,0.144862
1608115989247,1608115989266,8.610238,-2.177076,-17.612743,1608115989245,-0.095993,-0.076794,0.057596
1608115989264,1608115989282,-4.167826,-2.500696,0.549172,1608115989262,-0.055851,0.076794,-0.022689
1608115989281,1608115989302,8.286619,-10.934415,-10.355823,1608115989280,0.012217,-0.089012,0.043633
1608115989297,1608115989317,-0.225553,-2.902768,4.167826,1608115989296,0.036652,-0.040143,0.144862
1608115989314,1608115989333,-0.264780,-11.297260,-22.918140,1608115989314,-0.017453,-0.008727,-0.010472
1608115989331,1608115989349,-7.786480,-15.317986,-13.592016,1608115989330,-0.052360,0.122173,-0.069813
1608115989348,1608115989368,3.481361,-11.414940,-13.788150,1608115989346,0.013963,0.261799,-0.073304
1608115989365,1608115989384,12.660385,-11.159967,-11.866046,1608115989364,-0.045379,-0.287979,0.013963
1608115989381,1608115989400,5.354431,-5.315204,-11.238420,1608115989380,0.073304,-0.102974,-0.005236
1608115989398,1608115989416,-11.375713,-6.913688,-3.765754,1608115989396,0.071558,0.075049,-0.029671
1608115989415,1608115989435,-6.697942,-7.315761,-10.434276,1608115989413,0.080285,0.024435,-0.034907
1608115989450,1608115989471,-0.931632,-5.854570,-2.814508,1608115989449,-0.036652,0.085521,0.055851
1608115989467,1608115989486,-4.108986,-10.816734,-9.992976,1608115989466,-0.001745,-0.059341,0.075049
1608115989484,1608115989502,-2.177076,-8.061066,-8.786758,1608115989483,-0.059341,-0.022689,-0.082030
1608115989501,1608115989518,2.098623,-7.619767,-5.668243,1608115989499,0.005236,0.066323,-0.073304
1608115989517,1608115989537,1.510224,-8.963278,-11.297260,1608115989516,0.005236,-0.040143,0.000000
1608115989534,1608115989549,-10.395049,-8.325846,-10.630408,1608115989534,0.027925,0.221657,-0.013963
1608115989551,1608115989553,-16.122131,-9.306511,-6.276256,1608115989538,0.038397,-0.116937,0.036652
1608115989572,1608115989565,-4.589512,-7.963000,-4.481639,1608115989570,0.012217,-0.076794,-0.013963
1608115989589,1608115989592,-8.100293,-9.433997,-9.816457,1608115989588,-0.040143,0.036652,0.024435
1608115989605,1608115989624,10.189109,-4.383573,-0.186326,1608115989604,-0.055851,0.052360,0.071558
1608115989622,1608115989640,-4.991585,-6.354709,-12.640772,1608115989621,-0.057596,0.026180,0.071558
1608115989639,1608115989655,6.217416,-6.678329,-5.491724,1608115989638,0.019199,0.164061,-0.017453
1608115989656,1608115989675,-2.579149,-11.885659,-12.464252,1608115989654,-0.019199,0.186750,-0.005236
1608115989672,1608115989691,12.444638,-7.698220,-1.676937,1608115989671,-0.031416,-0.022689,0.022689
1608115989689,1608115989706,5.834957,-8.267006,-12.866324,1608115989688,-0.027925,0.034907,0.022689
1608115989706,1608115989722,-8.286619,-6.854848,-1.696550,1608115989704,-0.017453,0.195477,-0.008727
1608115989723,1608115989742,-8.825985,-10.934415,-20.642998,1608115989721,-0.001745,0.153589,-0.020944
1608115989739,1608115989758,7.256921,-6.217416,-8.943665,1608115989739,0.008727,0.048869,0.013963
1608115989756,1608115989773,-2.461469,-5.530951,-4.462026,1608115989755,0.012217,0.123918,0.062832
1608115989773,1608115989789,1.892683,-4.932745,-2.736055,1608115989773,-0.013963,-0.026180,0.082030
1608115989790,1608115989809,-5.648630,-8.041452,-13.709697,1608115989788,-0.041888,0.197222,-0.034907
1608115989807,1608115989824,15.416054,-10.169496,-11.640493,1608115989806,-0.034907,-0.087266,-0.062832
1608115989823,1608115989840,5.315204,-6.619489,-0.666852,1608115989823,-0.087266,0.095993,0.080285
1608115989840,1608115989856,3.520587,-13.111491,-8.904438,1608115989839,-0.045379,-0.106465,0.087266
1608115989857,1608115989875,0.686466,-7.198081,4.491446,1608115989855,-0.047124,-0.040143,0.001745
1608115989874,1608115989891,-3.765754,-4.059953,-13.768537,1608115989872,-0.005236,0.263545,-0.020944
1608115989890,1608115989907,2.500696,-4.040339,-4.844485,1608115989889,0.094248,0.076794,0.057596
1608115989907,1608115989923,1.108151,-1.794617,8.580818,1608115989905,-0.013963,0.059341,0.052360
1608115989924,1608115989942,-2.902768,-4.344346,-5.952636,1608115989922,0.012217,0.176278,-0.012217
1608115989941,1608115989958,10.238142,-4.226666,0.304006,1608115989940,-0.097738,0.111701,0.022689
1608115989957,1608115989974,-4.932745,-9.532063,-15.621993,1608115989957,-0.040143,0.057596,0.041888
1608115989974,1608115989989,4.746418,-9.012311,-10.836348,1608115989973,-0.026180,0.010472,-0.015708
1608115989991,1608115990009,0.666852,-13.670470,-20.123245,1608115989989,0.031416,0.066323,0.031416
1608115990008,1608115990025,-5.815343,-5.815343,-7.619767,1608115990007,0.048869,0.139626,0.036652
1608115990025,1608115990040,-3.540200,-10.640215,-4.932745,1608115990023,0.055851,0.048869,-0.040143
1608115990041,1608115990056,6.835235,-7.600153,-9.649743,1608115990040,-0.043633,0.113446,-0.043633
1608115990058,1608115990076,-2.353596,-7.462861,-9.404577,1608115990057,-0.012217,0.226893,0.041888
1608115990075,1608115990092,-2.461469,-6.756782,-7.560927,1608115990073,-0.008727,0.094248,0.010472
1608115990092,1608115990107,5.815343,-10.091043,-10.414662,1608115990090,0.000000,0.141372,-0.008727
1608115990108,1608115990123,0.509946,-7.060788,-8.580818,1608115990108,-0.006981,0.054105,0.024435
1608115990125,1608115990143,3.402907,-5.168105,-6.933301,1608115990124,-0.031416,0.143117,0.029671
1608115990142,1608115990158,-1.235638,-7.080401,-10.277369,1608115990142,0.000000,0.123918,0.026180
1608115990159,1608115990174,-2.029977,-8.227779,-10.257755,1608115990157,-0.010472,0.151844,0.019199
1608115990175,1608115990190,-0.931632,-7.364794,-8.247393,1608115990174,0.012217,0.073304,0.031416
1608115990192,1608115990206,-0.323619,-8.247393,-10.875574,1608115990192,0.047124,0.043633,-0.012217
1608115990209,1608115990225,7.757060,-7.845320,-3.324454,1608115990208,0.027925,-0.003491,0.027925
1608115990226,1608115990241,-12.425025,-6.796008,-11.297260,1608115990224,-0.024435,0.214676,0.089012
1608115990243,1608115990257,-8.286619,-8.963278,-9.590903,1608115990242,-0.050615,0.005236,0.017453
1608115990259,1608115990276,7.766867,-8.286619,-9.384964,1608115990258,0.001745,0.003491,-0.026180
1608115990276,1608115990292,-0.686466,-10.630408,-19.073935,1608115990275,0.005236,0.029671,0.024435
1608115990293,1608115990308,-2.863542,-9.630130,-6.962721,1608115990292,0.010472,0.123918,0.001745
1608115990310,1608115990324,-3.265614,-7.443247,-9.188830,1608115990308,0.020944,0.144862,-0.027925
1608115990326,1608115990343,0.813952,-7.678607,-3.824593,1608115990325,-0.008727,0.191986,-0.040143
1608115990343,1608115990359,1.431771,-6.639102,-9.708583,1608115990342,-0.012217,0.059341,-0.005236
1608115990360,1608115990375,1.912297,-7.217694,-8.963278,1608115990359,-0.024435,0.036652,0.013963
1608115990377,1608115990390,-1.794617,-6.335096,-10.316595,1608115990376,-0.017453,0.075049,-0.019199
1608115990394,1608115990410,1.431771,-5.305398,-11.336487,1608115990392,0.017453,0.057596,-0.024435
1608115990410,1608115990426,0.411879,-9.551677,-7.678607,1608115990408,0.019199,0.097738,0.024435
1608115990427,1608115990441,-0.568786,-8.325846,-10.130269,1608115990426,0.015708,0.095993,0.027925
1608115990444,1608115990457,-6.697942,-7.884546,-10.110656,1608115990442,0.017453,0.164061,-0.043633
1608115990466,1608115990481,4.059953,-7.119628,-6.237029,1608115990465,-0.008727,-0.034907,0.010472
1608115990482,1608115990496,-2.039783,-8.178746,-11.120741,1608115990481,-0.038397,0.062832,-0.041888
1608115990499,1608115990512,-2.834122,-6.335096,-10.630408,1608115990498,0.000000,0.155334,-0.027925
1608115990516,1608115990532,1.412158,-4.442412,-7.502087,1608115990515,0.047124,0.104720,-0.020944
1608115990533,1608115990548,5.815343,-7.678607,-9.129991,1608115990532,0.059341,-0.029671,0.013963
1608115990549,1608115990563,-3.177355,-7.139241,-1.990750,1608115990548,0.075049,0.073304,0.024435
1608115990566,1608115990579,-4.089373,-9.473224,-9.914523,1608115990565,0.017453,0.076794,-0.005236
1608115990583,1608115990599,4.903325,-5.226944,-3.746140,1608115990582,-0.001745,-0.034907,0.008727
1608115990600,1608115990614,2.137850,-8.139520,-10.738281,1608115990599,-0.001745,-0.031416,0.024435
1608115990617,1608115990630,-0.186326,-9.188830,-11.101128,1608115990616,-0.012217,0.050615,-0.022689
1608115990633,1608115990646,-2.883155,-7.178468,-8.423912,1608115990632,0.024435,0.097738,-0.027925
1608115990650,1608115990665,1.166991,-7.541314,-9.169217,1608115990649,0.015708,0.069813,-0.008727
1608115990667,1608115990681,1.353318,-6.776395,-6.374322,1608115990666,0.015708,-0.006981,0.022689
1608115990684,1608115990697,0.764919,-7.541314,-8.521978,1608115990683,0.010472,-0.005236,0.012217
1608115990700,1608115990713,0.029420,-8.159133,-9.326124,1608115990699,0.010472,0.000000,0.013963
1608115990717,1608115990732,-0.872792,-7.806093,-8.629851,1608115990716,0.012217,-0.022689,0.013963
1608115990734,1608115990748,-0.931632,-8.061066,-9.728196,1608115990733,0.019199,0.019199,0.003491
1608115990751,1608115990764,-1.627904,-7.717834,-7.678607,1608115990751,0.015708,0.003491,-0.001745
1608115990768,1608115990779,-0.049033,-8.178746,-8.443525,1608115990766,0.012217,0.003491,-0.003491
1608115990784,1608115990799,2.079010,-7.600153,-7.041174,1608115990783,0.012217,-0.012217,0.000000
1608115990801,1608115990815,-0.784532,-7.864933,-7.178468,1608115990801,0.013963,0.019199,0.000000
1608115990818,1608115990831,0.451106,-8.541592,-8.786758,1608115990816,-0.003491,0.000000,-0.005236
1608115990835,1608115990846,-0.323619,-8.443525,-9.149604,1608115990833,0.005236,0.001745,0.003491
1608115990868,1608115990882,-3.236194,-7.884546,-6.452775,1608115990868,0.015708,0.092502,-0.020944
1608115990885,1608115990897,-3.118515,-8.404299,-8.963278,1608115990884,0.003491,0.055851,-0.015708
1608115990902,1608115990917,3.285228,-7.963000,-7.443247,1608115990901,-0.001745,-0.036652,0.008727
1608115990919,1608115990933,1.549451,-7.904160,-9.188830,1608115990918,0.000000,-0.057596,0.017453
1608115990936,1608115990948,-0.872792,-7.462861,-5.589790,1608115990935,0.015708,0.027925,-0.010472
1608115990953,1608115990964,0.451106,-8.286619,-4.020726,1608115990951,0.055851,0.012217,-0.005236
1608115990969,1608115990980,-0.853179,-9.708583,-2.177076,1608115990968,0.078540,0.020944,0.000000
1608115990986,1608115990984,1.549451,-7.737447,1.627904,1608115990970,0.087266,-0.038397,0.017453
1608115991009,1608115990996,-1.412158,-9.433997,-0.029420,1608115991009,0.064577,-0.001745,0.000000
1608115991026,1608115991019,3.177355,-9.669356,0.970858,1608115991025,0.029671,-0.020944,0.012217
1608115991042,1608115991047,0.931632,-9.894910,0.343233,1608115991041,0.000000,0.026180,0.001745
1608115991059,1608115991070,0.411879,-9.649743,-1.353318,1608115991058,0.003491,0.031416,0.005236
1608115991076,1608115991090,1.127765,-9.492837,-0.951245,1608115991075,0.001745,-0.024435,-0.005236
1608115991093,1608115991106,0.186326,-9.688970,-1.549451,1608115991092,0.020944,0.000000,0.001745
1608115991110,1608115991121,0.000000,-9.806650,-1.206218,1608115991108,0.012217,0.000000,0.003491
1608115991126,1608115991137,-0.049033,-9.384964,-0.588399,1608115991125,0.019199,0.008727,0.001745
1608115991143,1608115991157,0.588399,-9.551677,-0.490332,1608115991142,0.022689,-0.003491,0.001745
1608115991160,1608115991172,-0.304006,-9.787037,-0.568786,1608115991158,0.012217,-0.001745,0.001745
1608115991177,1608115991188,-0.147100,-9.914523,-0.529559,1608115991176,0.005236,0.005236,0.005236
1608115991193,1608115991200,-0.402073,-9.806650,-0.402073,1608115991193,0.008727,0.017453,0.000000
1608115991210,1608115991220,0.245166,-9.836070,0.147100,1608115991210,0.008727,0.019199,-0.001745
1608115991227,1608115991239,0.147100,-10.296982,0.166713,1608115991225,0.010472,0.001745,-0.008727
1608115991244,1608115991255,1.049312,-10.228335,-1.294478,1608115991243,0.001745,-0.015708,-0.003491
1608115991261,1608115991271,-1.588677,-9.414384,0.549172,1608115991260,0.012217,0.019199,0.001745
1608115991277,1608115991290,-0.608012,-11.140354,-1.147378,1608115991276,0.027925,0.033161,0.006981
1608115991294,1608115991306,0.666852,-9.228058,1.166991,1608115991293,0.013963,0.020944,-0.003491
1608115991311,1608115991322,0.009807,-9.875297,0.627626,1608115991310,0.013963,-0.019199,0.012217
1608115991328,1608115991338,1.108151,-9.228058,1.637710,1608115991327,0.017453,-0.020944,0.005236
1608115991345,1608115991357,0.343233,-9.512450,-0.362846,1608115991344,0.005236,0.015708,0.000000
1608115991361,1608115991373,-0.029420,-9.728196,1.873070,1608115991360,0.000000,-0.020944,-0.012217
1608115991378,1608115991389,2.079010,-9.433997,-0.490332,1608115991377,0.006981,-0.012217,-0.005236
1608115991395,1608115991404,0.725692,-9.610517,0.608012,1608115991394,0.008727,0.005236,-0.001745
1608115991412,1608115991424,-0.205940,-10.277369,-0.549172,1608115991410,0.006981,0.010472,-0.003491
1608115991429,1608115991440,-0.029420,-9.630130,0.804145,1608115991427,0.008727,0.013963,-0.008727
1608115991445,1608115991456,0.509946,-10.257755,-0.264780,1608115991444,0.008727,0.013963,-0.010472
1608115991462,1608115991471,0.264780,-10.797121,0.725692,1608115991461,-0.003491,-0.001745,-0.012217
1608115991483,1608115991495,2.157463,-9.031924,0.745305,1608115991482,-0.015708,-0.026180,-0.005236
1608115991500,1608115991511,0.568786,-10.208722,1.068925,1608115991499,-0.005236,-0.013963,0.000000
1608115991517,1608115991526,-1.147378,-10.091043,-0.853179,1608115991515,0.005236,0.008727,-0.012217
1608115991533,1608115991546,0.608012,-10.453889,1.608291,1608115991532,0.013963,0.022689,-0.012217
1608115991550,1608115991562,1.314091,-10.296982,-0.411879,1608115991549,0.008727,-0.048869,0.000000
1608115991567,1608115991577,0.402073,-9.875297,1.696550,1608115991565,0.031416,-0.010472,0.015708
1608115991584,1608115991593,-4.059953,-9.953750,-0.549172,1608115991582,0.034907,0.017453,0.001745
1608115991600,1608115991605,0.951245,-10.453889,-0.431493,1608115991600,0.027925,-0.017453,-0.010472
1608115991617,1608115991617,0.470719,-10.355823,0.362846,1608115991617,0.020944,-0.066323,0.022689
1608115991634,1608115991636,-1.775004,-10.973641,1.735777,1608115991634,0.013963,0.000000,-0.013963
1608115991651,1608115991648,-2.079010,-10.757895,0.470719,1608115991650,-0.006981,0.029671,-0.026180
1608115991667,1608115991672,-4.530672,-10.895188,-4.226666,1608115991666,0.001745,-0.003491,-0.024435
1608115991684,1608115991691,1.314091,-10.571568,-0.411879,1608115991684,0.017453,-0.113446,-0.003491
1608115991701,1608115991699,-3.040061,-10.757895,-1.294478,1608115991700,0.010472,-0.068068,-0.020944
1608115991718,1608115991711,0.029420,-9.384964,0.549172,1608115991717,0.012217,-0.031416,-0.031416
1608115991734,1608115991723,-0.725692,-8.247393,2.863542,1608115991734,0.003491,-0.134390,-0.006981
1608115991751,1608115991739,-0.666852,-9.326124,0.647239,1608115991750,0.033161,-0.104720,-0.017453
1608115991768,1608115991754,0.431493,-9.404577,-0.627626,1608115991767,0.022689,-0.146608,-0.017453
1608115991785,1608115991766,-2.539922,-9.894910,0.245166,1608115991784,0.003491,-0.132645,-0.031416
1608115991801,1608115991774,1.676937,-9.492837,1.657324,1608115991801,-0.017453,-0.130900,-0.024435
1608115991818,1608115991797,2.637989,-11.120741,-0.813952,1608115991817,-0.006981,-0.202458,-0.024435
1608115991835,1608115991817,-1.431771,-11.159967,-1.608291,1608115991834,0.015708,-0.153589,-0.040143
1608115991852,1608115991829,0.666852,-10.414662,-1.569064,1608115991851,0.036652,-0.209440,-0.043633
1608115991868,1608115991837,-0.470719,-9.630130,0.000000,1608115991868,0.031416,-0.204204,-0.047124
1608115991885,1608115991841,0.186326,-9.512450,-0.970858,1608115991869,0.031416,-0.226893,-0.057596
1608115991902,1608115991856,-0.402073,-8.188553,0.745305,1608115991902,0.022689,-0.254818,-0.048869
1608115991919,1608115991868,-2.412436,-8.688692,2.314369,1608115991918,0.055851,-0.263545,-0.054105
1608115991936,1608115991884,0.304006,-8.306232,1.392544,1608115991935,0.012217,-0.162316,-0.076794
1608115991952,1608115991900,-1.794617,-10.797121,0.686466,1608115991952,0.043633,-0.289725,-0.062832
1608115991969,1608115991927,1.833843,-10.071429,0.431493,1608115991968,0.048869,-0.396190,-0.024435
1608115992003,1608115991974,-3.442134,-9.894910,-0.608012,1608115992002,-0.050615,-0.314159,-0.090757
1608115992020,1608115991998,-2.059397,-13.288011,-6.178189,1608115992019,0.022689,-0.382227,-0.057596
1608115992036,1608115992017,5.874183,-11.777786,-2.177076,1608115992035,-0.064577,-0.499164,-0.052360
1608115992053,1608115992041,0.166713,-12.307345,-2.618376,1608115992053,0.029671,-0.404916,-0.125664
1608115992070,1608115992072,5.285784,-8.982891,4.020726,1608115992069,-0.010472,-0.378736,-0.111701
1608115992087,1608115992096,-1.235638,-8.423912,0.451106,1608115992085,-0.006981,-0.413643,-0.089012
1608115992104,1608115992112,-2.333983,-8.384686,0.912018,1608115992103,0.036652,-0.459022,-0.080285
1608115992120,1608115992128,-0.029420,-10.610795,3.746140,1608115992119,0.036652,-0.472984,-0.090757
1608115992137,1608115992147,-3.726527,-7.178468,1.166991,1608115992136,0.001745,-0.500910,-0.094248
1608115992154,1608115992163,-1.716164,-7.560927,1.510224,1608115992153,0.015708,-0.504400,-0.113446
1608115992171,1608115992179,-2.118236,-10.993255,-2.010363,1608115992169,0.026180,-0.502655,-0.111701
1608115992187,1608115992194,0.304006,-12.866324,1.637710,1608115992186,0.054105,-0.548033,-0.109956
1608115992204,1608115992214,1.353318,-4.952358,2.863542,1608115992203,0.000000,-0.628319,-0.090757
1608115992221,1608115992230,-2.059397,-12.140633,1.206218,1608115992219,-0.003491,-0.631809,-0.087266
1608115992238,1608115992245,-1.608291,-13.974476,-0.568786,1608115992237,-0.020944,-0.591667,-0.146608
1608115992254,1608115992261,0.990472,-7.521700,1.657324,1608115992253,0.024435,-0.612611,-0.130900
1608115992271,1608115992265,-0.608012,-15.337600,-0.588399,1608115992257,-0.045379,-0.544543,-0.120428
1608115992310,1608115992293,-2.039783,-16.985117,0.764919,1608115992310,0.087266,-0.671952,-0.158825
1608115992327,1608115992324,3.559814,-0.166713,-1.431771,1608115992325,0.062832,-0.642281,-0.153589
1608115992343,1608115992348,-7.884546,-22.672974,-3.687300,1608115992342,0.082030,-0.712094,-0.115192
1608115992360,1608115992367,-3.020448,-20.437057,1.931910,1608115992359,0.017453,-0.806342,-0.094248
1608115992377,1608115992383,-2.794895,-6.109543,-2.500696,1608115992375,-0.068068,-0.820305,-0.136136
1608115992394,1608115992403,1.108151,-8.178746,-4.511059,1608115992393,-0.024435,-0.774926,-0.226893
1608115992411,1608115992418,-1.314091,-9.149604,2.853735,1608115992409,0.017453,-0.733038,-0.207694
1608115992427,1608115992434,-0.166713,-9.571290,-2.157463,1608115992427,-0.013963,-0.836013,-0.174533
1608115992444,1608115992450,-4.422799,-11.101128,1.166991,1608115992442,-0.017453,-0.733038,-0.178024
1608115992461,1608115992470,-7.296147,-8.845598,-0.951245,1608115992460,-0.003491,-0.692896,-0.195477
1608115992478,1608115992485,-4.648352,-12.238699,-0.833565,1608115992477,-0.020944,-0.776672,-0.204204
1608115992499,1608115992505,2.775282,-11.199194,2.353596,1608115992498,-0.020944,-0.919788,-0.144862
1608115992516,1608115992525,-8.306232,-10.993255,-1.372931,1608115992514,0.015708,-0.921534,-0.139626
1608115992532,1608115992540,-6.756782,-9.855683,-4.305119,1608115992532,0.006981,-0.750492,-0.223402
1608115992549,1608115992556,0.725692,-7.982613,-2.736055,1608115992548,0.017453,-0.809833,-0.188496
1608115992566,1608115992572,-0.509946,-8.080679,4.324733,1608115992564,0.010472,-0.863938,-0.136136
1608115992583,1608115992591,-3.344068,-9.326124,0.147100,1608115992582,0.010472,-0.893609,-0.157080
1608115992600,1608115992607,-6.070316,-8.963278,-2.981221,1608115992598,-0.019199,-0.815069,-0.190241
1608115992616,1608115992623,-3.304841,-9.267284,-1.127765,1608115992614,-0.022689,-0.867429,-0.176278
1608115992633,1608115992639,-9.414384,-12.503478,-0.490332,1608115992633,-0.029671,-0.670206,-0.183260
1608115992650,1608115992658,-7.276534,-10.699055,-3.255808,1608115992648,-0.001745,-0.717330,-0.232129
1608115992667,1608115992674,6.639102,-8.580818,-2.863542,1608115992665,-0.012217,-0.753982,-0.256563
1608115992683,1608115992690,13.493950,-6.982335,6.011477,1608115992682,0.031416,-1.117011,-0.144862
1608115992700,1608115992705,2.353596,-9.816457,0.225553,1608115992699,-0.001745,-1.024508,-0.116937
1608115992717,1608115992717,-4.648352,-11.601267,-1.510224,1608115992716,-0.029671,-0.930260,-0.167552
1608115992734,1608115992741,-2.079010,-11.101128,-0.608012,1608115992732,-0.029671,-0.863938,-0.254818
1608115992751,1608115992756,1.627904,-10.512729,2.098623,1608115992749,-0.008727,-0.883137,-0.223402
1608115992767,1608115992772,-1.873070,-10.532342,0.411879,1608115992766,-0.029671,-0.972148,-0.178024
1608115992784,1608115992792,-5.952636,-7.678607,-3.981500,1608115992783,-0.024435,-0.907571,-0.202458
1608115992801,1608115992807,0.872792,-8.345459,0.343233,1608115992799,0.005236,-0.998328,-0.221657
1608115992818,1608115992815,-1.569064,-9.247671,-0.764919,1608115992815,-0.001745,-0.851721,-0.235619
1608115992834,1608115992839,-2.902768,-8.580818,-0.706079,1608115992834,-0.026180,-0.869174,-0.150098
1608115992851,1608115992859,-6.531229,-10.453889,-2.079010,1608115992850,-0.031416,-0.944223,-0.150098
1608115992868,1608115992874,-2.883155,-9.914523,-4.246279,1608115992867,-0.019199,-0.975639,-0.216421
1608115992885,1608115992890,-4.246279,-8.767145,-3.285228,1608115992883,0.000000,-0.951204,-0.204204
1608115992901,1608115992906,-8.747532,-10.679441,-3.657880,1608115992901,0.017453,-0.933751,-0.179769
1608115992918,1608115992925,-5.246558,-9.894910,1.490611,1608115992917,0.027925,-1.000074,-0.218166
1608115992935,1608115992941,-3.285228,-10.395049,-0.205940,1608115992933,0.017453,-1.003564,-0.221657
1608115992952,1608115992957,-8.404299,-8.943665,0.745305,1608115992951,-0.005236,-0.841249,-0.218166
1608115992969,1608115992973,-6.335096,-9.953750,-1.637710,1608115992967,-0.041888,-0.961676,-0.209440
1608115992985,1608115992992,-0.362846,-9.708583,-2.314369,1608115992983,-0.045379,-0.979130,-0.235619
1608115993002,1608115993008,-2.961608,-9.247671,2.137850,1608115993001,-0.034907,-0.933751,-0.232129
1608115993019,1608115993024,-10.895188,-9.532063,-10.512729,1608115993017,-0.062832,-0.895354,-0.226893
1608115993036,1608115993039,-0.647239,-9.669356,2.598762,1608115993034,0.024435,-0.940732,-0.246091
1608115993052,1608115993059,-9.875297,-10.816734,-3.746140,1608115993051,-0.003491,-0.965167,-0.171042
1608115993069,1608115993075,-8.669079,-8.482752,-1.549451,1608115993068,0.026180,-1.012291,-0.200713
1608115993086,1608115993090,-0.970858,-9.649743,-0.951245,1608115993086,-0.019199,-1.041962,-0.216421
1608115993103,1608115993106,-5.913410,-8.286619,-0.627626,1608115993102,-0.012217,-1.041962,-0.169297
1608115993120,1608115993126,-6.511615,-8.267006,0.245166,1608115993118,-0.026180,-1.033235,-0.193732
1608115993136,1608115993142,-6.913688,-8.943665,-2.314369,1608115993136,-0.010472,-0.975639,-0.242601
1608115993153,1608115993157,-12.258312,-9.326124,-5.011198,1608115993151,-0.008727,-0.907571,-0.244346
1608115993170,1608115993173,-6.178189,-11.983726,-1.529837,1608115993168,0.029671,-0.930260,-0.244346
1608115993187,1608115993193,-4.971972,-10.718668,-0.186326,1608115993185,0.034907,-1.083849,-0.232129
1608115993203,1608115993208,-1.951523,-10.296982,-1.529837,1608115993202,0.003491,-1.073377,-0.244346
1608115993220,1608115993224,-1.569064,-8.786758,5.511337,1608115993219,-0.027925,-1.047198,-0.242601
1608115993237,1608115993240,1.068925,-8.080679,1.431771,1608115993236,-0.008727,-1.094321,-0.219911
1608115993254,1608115993259,-5.874183,-8.463139,2.118236,1608115993252,0.001745,-1.132719,-0.244346
1608115993270,1608115993275,-2.618376,-9.669356,-2.696829,1608115993270,-0.017453,-0.966912,-0.263545
1608115993287,1608115993291,-16.318266,-8.943665,-5.413270,1608115993286,-0.015708,-0.883137,-0.246091
1608115993304,1608115993307,-10.757895,-8.629851,-0.990472,1608115993303,0.010472,-1.045452,-0.254818
1608115993321,1608115993326,-6.217416,-12.287732,-3.138128,1608115993320,-0.012217,-0.944223,-0.211185
1608115993337,1608115993342,-9.571290,-10.914802,-4.569899,1608115993336,-0.001745,-1.045452,-0.202458
1608115993354,1608115993358,10.130269,-7.021561,6.658715,1608115993352,-0.010472,-1.230457,-0.230383
1608115993371,1608115993373,4.148213,-10.993255,-4.530672,1608115993370,0.024435,-1.129228,-0.216421
1608115993388,1608115993389,-8.669079,-12.326959,-8.884825,1608115993386,-0.012217,-1.089085,-0.232129
1608115993404,1608115993409,-5.913410,-10.571568,-9.747809,1608115993403,-0.003491,-1.050688,-0.258309
1608115993421,1608115993425,5.266171,-9.404577,1.068925,1608115993420,-0.027925,-1.295034,-0.209440
1608115993438,1608115993440,-0.088260,-6.756782,2.255529,1608115993436,0.026180,-1.183333,-0.202458
1608115993455,1608115993460,-10.071429,-10.816734,-2.029977,1608115993453,0.000000,-1.183333,-0.265290
1608115993472,1608115993476,-1.912297,-10.679441,-0.588399,1608115993471,0.005236,-1.008800,-0.308923
1608115993488,1608115993491,6.717555,-8.325846,2.579149,1608115993487,-0.048869,-1.284562,-0.239110
1608115993511,1608115993515,-8.021839,-9.571290,-7.502087,1608115993510,-0.059341,-0.951204,-0.265290
1608115993527,1608115993531,-6.492002,-9.473224,-0.451106,1608115993526,0.003491,-1.148427,-0.246091
1608115993544,1608115993546,-5.933023,-8.502365,-8.580818,1608115993542,-0.055851,-0.916298,-0.277507
1608115993561,1608115993562,-10.610795,-4.824872,-1.235638,1608115993560,0.000000,-1.375319,-0.274017
1608115993578,1608115993582,2.559536,-9.149604,-1.696550,1608115993576,-0.005236,-1.279326,-0.197222
1608115993595,1608115993586,-6.737168,-11.032481,-1.431771,1608115993580,0.003491,-0.947714,-0.221657
1608115993630,1608115993633,-0.304006,-7.315761,4.324733,1608115993630,-0.005236,-1.141445,-0.244346
1608115993647,1608115993649,-2.755669,-12.827098,-5.952636,1608115993645,-0.087266,-1.213004,-0.254818
1608115993663,1608115993664,-13.082070,-9.806650,-5.011198,1608115993662,-0.050615,-0.987856,-0.277507
1608115993680,1608115993684,-3.157741,-10.895188,-10.630408,1608115993679,-0.076794,-1.281072,-0.305433
1608115993697,1608115993700,-3.746140,-8.041452,5.393657,1608115993695,-0.015708,-1.195551,-0.282743
1608115993714,1608115993715,-8.845598,-7.619767,-4.609126,1608115993712,-0.040143,-1.144936,-0.267035
1608115993731,1608115993735,-7.276534,-6.796008,0.725692,1608115993729,0.020944,-1.117011,-0.287979
1608115993747,1608115993751,1.333704,-8.423912,2.137850,1608115993746,-0.024435,-1.219985,-0.301942
1608115993764,1608115993767,-3.677494,-9.610517,-0.872792,1608115993763,-0.026180,-1.247910,-0.197222
1608115993781,1608115993782,-18.917027,-10.395049,-1.353318,1608115993780,-0.043633,-0.890118,-0.249582
1608115993798,1608115993798,-13.974476,-8.002226,-5.648630,1608115993796,-0.043633,-0.949459,-0.261799
1608115993814,1608115993818,7.825706,-10.630408,4.864098,1608115993814,0.015708,-1.460841,-0.157080
1608115993831,1608115993833,-14.455002,-9.610517,-13.994089,1608115993830,-0.013963,-1.157153,-0.247837
1608115993848,1608115993849,-10.012589,-10.914802,-1.676937,1608115993847,0.047124,-1.122247,-0.314159
1608115993865,1608115993869,-5.550564,-6.237029,5.128878,1608115993864,0.019199,-1.275836,-0.270526
1608115993882,1608115993884,-2.716442,-7.256921,6.011477,1608115993880,0.008727,-1.450369,-0.284489
1608115993898,1608115993900,0.764919,-14.092155,-0.343233,1608115993897,-0.036652,-1.349139,-0.286234
1608115993915,1608115993916,-8.747532,-6.492002,2.216303,1608115993915,-0.043633,-1.188569,-0.223402
1608115993932,1608115993928,-11.042288,-9.512450,-1.314091,1608115993931,-0.038397,-1.228712,-0.249582
1608115993949,1608115993947,2.579149,-4.589512,7.943386,1608115993948,-0.006981,-1.319469,-0.265290
1608115993965,1608115993967,-2.902768,-8.482752,-2.696829,1608115993964,-0.010472,-1.139700,-0.275762
1608115993982,1608115993983,-8.561205,-8.767145,-2.481082,1608115993981,0.015708,-1.090831,-0.265290
1608115993999,1608115993998,0.804145,-7.766867,-6.158576,1608115993999,0.036652,-1.293289,-0.218166
1608115994016,1608115994018,-7.963000,-5.913410,0.225553,1608115994014,0.057596,-1.268854,-0.235619
1608115994032,1608115994034,-7.217694,-11.120741,-1.892683,1608115994031,0.045379,-1.226967,-0.256563
1608115994049,1608115994049,-9.894910,-10.277369,-2.696829,1608115994049,0.008727,-1.134464,-0.235619
1608115994066,1608115994069,-4.383573,-10.296982,-6.619489,1608115994064,-0.031416,-1.226967,-0.216421
1608115994083,1608115994085,-7.404021,-11.522814,-2.216303,1608115994081,-0.003491,-1.420698,-0.235619
1608115994100,1608115994101,-10.914802,-8.590625,-1.990750,1608115994099,0.000000,-1.068141,-0.301942
1608115994116,1608115994116,-6.982335,-10.640215,-8.188553,1608115994115,-0.008727,-1.251401,-0.308923
1608115994133,1608115994136,-0.725692,-10.051816,0.225553,1608115994131,0.006981,-1.150172,-0.277507
1608115994150,1608115994152,-8.629851,-9.326124,-4.589512,1608115994148,-0.001745,-1.261873,-0.261799
1608115994167,1608115994167,-2.961608,-9.384964,2.079010,1608115994165,0.019199,-1.134464,-0.254818
1608115994183,1608115994183,-6.796008,-8.649466,-1.108151,1608115994183,0.000000,-1.281072,-0.247837
1608115994200,1608115994203,-5.550564,-8.119906,3.157741,1608115994199,0.006981,-1.329941,-0.270526
1608115994217,1608115994218,-17.583323,-9.571290,-5.727084,1608115994216,-0.013963,-1.169371,-0.249582
1608115994234,1608115994234,-18.554182,-12.160246,-8.727919,1608115994233,-0.036652,-1.129228,-0.301942
1608115994251,1608115994250,-3.157741,-10.375436,-1.971137,1608115994249,-0.008727,-1.218240,-0.282743
1608115994267,1608115994270,-4.040339,-14.974754,-9.875297,1608115994266,-0.012217,-1.385791,-0.219911
1608115994284,1608115994285,-10.091043,-7.139241,0.872792,1608115994283,-0.017453,-1.096067,-0.315905
1608115994301,1608115994301,-10.836348,-11.032481,-8.561205,1608115994300,-0.022689,-1.041962,-0.404916
1608115994318,1608115994317,-7.786480,-7.541314,6.717555,1608115994317,-0.071558,-1.000074,-0.294961
1608115994335,1608115994336,-7.482474,-6.511615,-0.068647,1608115994334,-0.034907,-1.345649,-0.202458
1608115994351,1608115994352,-3.981500,-7.698220,-3.824593,1608115994350,-0.047124,-1.432915,-0.242601
1608115994368,1608115994368,-10.895188,-9.247671,-7.178468,1608115994368,-0.015708,-1.038471,-0.319395
1608115994385,1608115994384,0.000000,-7.943386,-0.362846,1608115994384,0.003491,-1.314233,-0.268781
1608115994402,1608115994403,-11.640493,-12.621159,-6.109543,1608115994400,0.027925,-1.328196,-0.186750
1608115994418,1608115994419,-7.737447,-11.179581,-9.836070,1608115994418,-0.008727,-1.228712,-0.275762
1608115994435,1608115994435,5.334817,-9.453610,4.403186,1608115994434,0.033161,-1.281072,-0.233874
1608115994452,1608115994450,8.482752,-7.443247,3.157741,1608115994451,-0.012217,-1.591740,-0.195477
1608115994469,1608115994470,-7.717834,-12.003340,-2.079010,1608115994468,-0.006981,-1.130973,-0.357792
1608115994486,1608115994486,-11.660107,-11.797400,-7.580540,1608115994484,0.024435,-0.958186,-0.324631
1608115994502,1608115994502,-0.804145,-7.600153,4.462026,1608115994501,-0.013963,-1.092576,-0.317650
1608115994526,1608115994525,-9.610517,-8.178746,-0.166713,1608115994526,-0.017453,-0.942478,-0.312414
1608115994543,1608115994545,-8.188553,-6.894075,5.589790,1608115994543,0.036652,-1.342158,-0.198968
1608115994560,1608115994560,-14.651134,-11.679720,-11.699333,1608115994558,-0.008727,-1.104793,-0.237365
1608115994577,1608115994576,-8.423912,-8.649466,8.610238,1608115994576,0.017453,-1.347394,-0.230383
1608115994594,1608115994592,-20.358604,-15.582767,-13.288011,1608115994593,-0.099484,-0.717330,-0.207694
1608115994610,1608115994612,-14.631521,-8.365072,4.148213,1608115994609,0.054105,-0.966912,-0.235619
1608115994627,1608115994627,-5.727084,-21.260817,-21.682503,1608115994626,0.083776,-0.989602,-0.319395
1608115994644,1608115994643,0.951245,-2.961608,9.953750,1608115994643,0.052360,-1.054179,-0.249582
1608115994661,1608115994659,-1.353318,-6.541035,7.904160,1608115994659,0.017453,-1.033235,-0.172788
1608115994677,1608115994674,-14.553068,-12.640772,-8.306232,1608115994676,-0.048869,-0.979130,-0.188496
1608115994694,1608115994694,-10.257755,-10.208722,-2.657602,1608115994693,-0.040143,-0.865683,-0.322886
1608115994711,1608115994710,-7.717834,-5.011198,4.991585,1608115994710,-0.006981,-0.937242,-0.263545
1608115994728,1608115994726,-7.080401,-11.522814,-7.276534,1608115994727,-0.052360,-0.818559,-0.193732
1608115994744,1608115994741,-2.500696,-10.816734,-2.235916,1608115994743,-0.048869,-0.963422,-0.165806
1608115994761,1608115994761,-18.691475,-12.503478,-8.002226,1608115994760,-0.001745,-0.750492,-0.198968
1608115994778,1608115994777,-3.942273,-9.836070,-4.687579,1608115994777,-0.040143,-0.687660,-0.258309
