cpu_ts,timestamp,acc_x,acc_y,acc_z,timestamp,gyro_x,gyro_y,gyro_z
1608115505084,1608115505070,0.304006,-9.326124,-1.755390,1608115505080,-0.001745,0.001745,-0.003491
1608115505117,1608115505085,0.323619,-9.306511,-1.775004,1608115505117,0.000000,0.000000,0.000000
1608115505184,1608115505113,0.323619,-9.326124,-1.775004,1608115505184,0.000000,0.001745,0.000000
1608115505218,1608115505136,0.343233,-9.306511,-1.755390,1608115505217,0.000000,0.000000,0.000000
1608115505251,1608115505160,0.362846,-9.345737,-1.814230,1608115505251,0.000000,0.003491,0.000000
1608115505285,1608115505175,0.323619,-9.286898,-1.794617,1608115505284,-0.001745,0.001745,0.000000
1608115505318,1608115505199,0.323619,-9.326124,-1.735777,1608115505318,-0.001745,0.001745,0.000000
1608115505352,1608115505210,0.323619,-9.306511,-1.696550,1608115505351,-0.003491,0.001745,0.000000
1608115505385,1608115505226,0.343233,-9.306511,-1.755390,1608115505384,-0.001745,0.003491,0.000000
1608115505419,1608115505242,0.304006,-9.306511,-1.755390,1608115505418,0.000000,0.000000,-0.005236
1608115505452,1608115505245,0.343233,-9.306511,-1.735777,1608115505418,-0.003491,0.003491,-0.001745
1608115505486,1608115505265,0.343233,-9.326124,-1.775004,1608115505485,0.000000,0.003491,0.001745
1608115505519,1608115505281,0.343233,-9.326124,-1.775004,1608115505519,-0.003491,0.000000,-0.003491
1608115505553,1608115505296,0.343233,-9.345737,-1.775004,1608115505552,0.000000,0.000000,0.000000
1608115505586,1608115505316,0.343233,-9.286898,-1.735777,1608115505585,0.001745,0.001745,-0.001745
1608115505619,1608115505335,0.343233,-9.326124,-1.735777,1608115505619,0.000000,0.005236,0.000000
1608115505653,1608115505351,0.343233,-9.286898,-1.716164,1608115505652,0.000000,0.006981,-0.003491
1608115505686,1608115505370,0.323619,-9.326124,-1.755390,1608115505686,0.000000,0.005236,0.001745
1608115505720,1608115505390,0.343233,-9.306511,-1.775004,1608115505720,-0.001745,0.003491,0.000000
1608115505753,1608115505417,0.343233,-9.306511,-1.735777,1608115505753,0.000000,0.003491,-0.001745
1608115505787,1608115505444,0.323619,-9.306511,-1.696550,1608115505787,0.000000,0.003491,-0.001745
1608115505820,1608115505464,0.343233,-9.345737,-1.755390,1608115505820,0.000000,0.000000,0.000000
1608115505854,1608115505483,0.323619,-9.345737,-1.775004,1608115505853,-0.001745,0.003491,0.000000
1608115505887,1608115505487,0.343233,-9.345737,-1.716164,1608115505854,0.000000,0.003491,0.001745
1608115505921,1608115505499,0.323619,-9.306511,-1.716164,1608115505920,0.000000,0.000000,0.000000
1608115505954,1608115505522,0.323619,-9.306511,-1.755390,1608115505954,0.001745,0.000000,0.000000
1608115505988,1608115505542,0.343233,-9.345737,-1.775004,1608115505987,-0.003491,0.001745,-0.001745
1608115506021,1608115505566,0.323619,-9.306511,-1.735777,1608115506021,-0.003491,0.005236,-0.003491
1608115506054,1608115505581,0.362846,-9.345737,-1.716164,1608115506054,-0.003491,0.003491,-0.001745
1608115506088,1608115505605,0.304006,-9.267284,-1.716164,1608115506087,-0.001745,0.001745,0.000000
1608115506121,1608115505629,0.323619,-9.326124,-1.755390,1608115506121,-0.001745,0.005236,0.000000
1608115506155,1608115505645,0.323619,-9.326124,-1.814230,1608115506154,0.000000,0.003491,-0.001745
1608115506188,1608115505668,0.343233,-9.286898,-1.716164,1608115506188,-0.001745,0.000000,0.000000
1608115506222,1608115505688,0.323619,-9.326124,-1.794617,1608115506221,0.000000,0.000000,-0.003491
1608115506255,1608115505704,0.323619,-9.345737,-1.775004,1608115506255,0.000000,0.006981,0.000000
1608115506289,1608115505724,0.343233,-9.326124,-1.794617,1608115506288,-0.001745,0.001745,-0.001745
1608115506322,1608115505747,0.343233,-9.306511,-1.755390,1608115506322,0.000000,0.001745,0.000000
1608115506356,1608115505771,0.362846,-9.306511,-1.794617,1608115506355,0.000000,0.005236,0.000000
1608115506389,1608115505799,0.343233,-9.306511,-1.814230,1608115506389,-0.001745,0.001745,0.000000
1608115506422,1608115505818,0.343233,-9.286898,-1.716164,1608115506422,0.000000,0.000000,0.000000
1608115506456,1608115505838,0.304006,-9.326124,-1.775004,1608115506456,-0.001745,0.005236,-0.001745
1608115506489,1608115505866,0.343233,-9.326124,-1.794617,1608115506489,-0.005236,0.003491,0.000000
1608115506523,1608115505890,0.323619,-9.286898,-1.794617,1608115506522,0.000000,0.003491,-0.001745
1608115506556,1608115505917,0.323619,-9.286898,-1.775004,1608115506556,-0.001745,0.001745,0.000000
1608115506590,1608115505949,0.362846,-9.306511,-1.775004,1608115506590,0.000000,0.001745,0.001745
1608115506623,1608115505973,0.323619,-9.365351,-1.755390,1608115506623,-0.003491,0.005236,0.000000
1608115506657,1608115505992,0.304006,-9.326124,-1.833843,1608115506656,0.000000,0.003491,0.000000
1608115506690,1608115506016,0.304006,-9.326124,-1.735777,1608115506690,0.000000,0.005236,0.000000
1608115506757,1608115506068,0.304006,-9.306511,-1.735777,1608115506757,-0.001745,0.005236,0.000000
1608115506791,1608115506091,0.323619,-9.306511,-1.755390,1608115506790,-0.003491,0.003491,0.000000
1608115506824,1608115506119,0.304006,-9.345737,-1.814230,1608115506824,0.000000,0.006981,-0.001745
1608115506857,1608115506147,0.304006,-9.365351,-1.853457,1608115506857,0.003491,0.000000,0.000000
1608115506891,1608115506175,0.343233,-9.365351,-1.873070,1608115506891,0.000000,0.000000,0.000000
1608115506924,1608115506191,0.284393,-9.286898,-1.716164,1608115506924,-0.001745,0.003491,0.000000
1608115506958,1608115506211,0.284393,-9.345737,-1.814230,1608115506957,0.000000,0.000000,0.000000
1608115506991,1608115506227,0.323619,-9.306511,-1.755390,1608115506991,-0.001745,0.005236,0.001745
1608115507025,1608115506251,0.323619,-9.306511,-1.716164,1608115507024,-0.003491,0.003491,0.001745
1608115507058,1608115506275,0.323619,-9.326124,-1.735777,1608115507058,0.000000,0.003491,0.000000
1608115507091,1608115506299,0.323619,-9.326124,-1.755390,1608115507091,0.000000,0.001745,0.000000
1608115507125,1608115506323,0.362846,-9.306511,-1.833843,1608115507125,0.000000,0.000000,-0.001745
1608115507158,1608115506343,0.323619,-9.306511,-1.716164,1608115507158,-0.001745,0.006981,0.000000
1608115507192,1608115506367,0.304006,-9.365351,-1.794617,1608115507191,-0.001745,0.001745,-0.003491
1608115507225,1608115506387,0.362846,-9.306511,-1.735777,1608115507225,-0.003491,0.001745,0.001745
1608115507259,1608115506547,0.343233,-9.306511,-1.735777,1608115507258,0.000000,0.001745,-0.001745
1608115507292,1608115506571,0.323619,-9.286898,-1.716164,1608115507292,-0.003491,0.003491,0.003491
1608115507325,1608115506596,0.343233,-9.345737,-1.814230,1608115507325,0.000000,0.000000,-0.001745
1608115507359,1608115506620,0.323619,-9.326124,-1.716164,1608115507358,0.000000,0.003491,0.001745
1608115507392,1608115506648,0.323619,-9.286898,-1.735777,1608115507392,-0.001745,0.003491,0.000000
1608115507426,1608115506672,0.343233,-9.306511,-1.735777,1608115507425,0.000000,0.003491,0.001745
1608115507459,1608115506692,0.402073,-9.326124,-1.755390,1608115507459,-0.001745,0.000000,0.000000
1608115507493,1608115506712,0.323619,-9.326124,-1.735777,1608115507492,0.000000,0.026180,-0.005236
1608115507526,1608115506732,0.323619,-9.286898,-1.696550,1608115507526,-0.001745,0.010472,-0.003491
1608115507559,1608115506752,0.304006,-9.365351,-1.873070,1608115507559,0.000000,-0.005236,0.000000
1608115507593,1608115506781,0.382459,-9.267284,-1.775004,1608115507593,0.000000,-0.001745,0.000000
1608115507626,1608115506813,0.343233,-9.247671,-1.755390,1608115507626,0.000000,0.005236,0.000000
1608115507660,1608115506833,0.343233,-9.326124,-1.794617,1608115507660,-0.001745,0.008727,-0.003491
1608115507693,1608115506857,0.343233,-9.365351,-1.814230,1608115507693,0.000000,0.003491,-0.001745
1608115507727,1608115506877,0.323619,-9.306511,-1.794617,1608115507726,-0.003491,0.003491,0.000000
1608115507760,1608115506901,0.382459,-9.365351,-1.833843,1608115507760,0.000000,0.005236,0.000000
1608115507794,1608115506922,0.264780,-9.306511,-1.873070,1608115507793,-0.003491,0.003491,0.001745
1608115507847,1608115506942,0.382459,-9.365351,-1.735777,1608115507846,0.000000,0.000000,0.000000
1608115507880,1608115506954,0.411879,-9.306511,-1.608291,1608115507879,0.000000,0.003491,-0.003491
1608115507914,1608115506982,0.343233,-9.365351,-1.676937,1608115507913,0.000000,0.005236,0.000000
1608115507947,1608115507028,0.323619,-9.247671,-1.696550,1608115507947,-0.001745,0.005236,-0.003491
1608115507981,1608115507048,0.264780,-9.286898,-1.696550,1608115507980,0.000000,0.001745,0.003491
1608115508014,1608115507052,0.343233,-9.326124,-1.775004,1608115507981,-0.003491,0.003491,-0.001745
1608115508048,1608115507071,0.343233,-9.345737,-1.735777,1608115508047,0.000000,0.001745,-0.001745
1608115508081,1608115507284,0.323619,-9.208445,-1.392544,1608115508080,0.000000,0.003491,0.000000
1608115508114,1608115507303,0.411879,-9.286898,-1.735777,1608115508114,-0.001745,0.003491,0.001745
1608115508148,1608115507323,0.147100,-9.384964,-1.990750,1608115508148,-0.003491,0.003491,0.000000
1608115508182,1608115507331,0.264780,-9.345737,-1.892683,1608115508179,0.000000,0.006981,0.000000
1608115508215,1608115507343,0.470719,-9.365351,-1.892683,1608115508215,0.000000,0.003491,0.000000
1608115508248,1608115507362,0.284393,-9.286898,-1.676937,1608115508248,-0.001745,0.003491,0.001745
1608115508282,1608115507366,0.402073,-9.345737,-1.814230,1608115508248,-0.001745,0.001745,0.000000
1608115508315,1608115507382,0.509946,-9.286898,-1.608291,1608115508315,0.000000,0.000000,0.000000
1608115508349,1608115507398,0.245166,-9.306511,-1.814230,1608115508349,-0.003491,0.003491,0.000000
1608115508383,1608115507418,0.382459,-9.267284,-1.676937,1608115508382,0.000000,0.001745,0.000000
1608115508416,1608115507422,0.382459,-9.345737,-1.814230,1608115508383,0.000000,0.000000,0.000000
1608115508502,1608115507465,0.225553,-9.286898,-1.833843,1608115508502,-0.001745,-0.003491,0.000000
1608115508536,1608115507481,0.343233,-9.365351,-1.755390,1608115508535,0.000000,0.001745,0.000000
1608115508569,1608115507496,0.431493,-9.267284,-1.696550,1608115508568,0.000000,0.001745,0.003491
1608115508602,1608115507512,0.362846,-9.326124,-1.755390,1608115508602,-0.001745,0.005236,0.000000
1608115508636,1608115507532,0.284393,-9.345737,-1.755390,1608115508635,-0.003491,0.000000,-0.001745
1608115508669,1608115507547,0.402073,-9.365351,-1.755390,1608115508669,0.000000,0.005236,0.000000
1608115508703,1608115507567,0.323619,-9.306511,-1.775004,1608115508703,-0.001745,0.001745,0.000000
1608115508736,1608115507591,0.362846,-9.267284,-1.755390,1608115508736,-0.003491,0.000000,0.000000
1608115508770,1608115507614,0.343233,-9.345737,-1.814230,1608115508769,-0.001745,0.000000,0.003491
1608115508803,1608115507634,0.284393,-9.306511,-1.775004,1608115508803,-0.003491,0.001745,-0.003491
1608115508836,1608115507650,0.323619,-9.306511,-1.814230,1608115508836,-0.003491,0.001745,0.001745
1608115508870,1608115507666,0.411879,-9.286898,-1.735777,1608115508869,0.000000,0.003491,-0.001745
1608115508903,1608115507677,0.343233,-9.345737,-1.735777,1608115508903,-0.005236,0.005236,-0.001745
1608115508937,1608115507693,0.343233,-9.306511,-1.912297,1608115508936,-0.001745,0.001745,0.000000
1608115508970,1608115507713,0.304006,-9.267284,-1.735777,1608115508970,0.000000,0.003491,0.003491
1608115509004,1608115507732,0.284393,-9.247671,-1.716164,1608115509003,-0.005236,0.003491,0.000000
1608115509037,1608115507752,0.343233,-9.286898,-1.696550,1608115509036,0.000000,0.001745,0.003491
1608115509071,1608115507772,0.323619,-9.326124,-1.755390,1608115509070,-0.003491,0.003491,0.000000
1608115509104,1608115508075,0.362846,-9.365351,-1.755390,1608115509104,0.000000,0.003491,0.000000
1608115509137,1608115508098,0.362846,-9.326124,-1.755390,1608115509137,0.000000,0.003491,0.000000
1608115509171,1608115508118,0.323619,-9.345737,-1.755390,1608115509170,0.001745,0.000000,0.005236
1608115509204,1608115508138,0.323619,-9.326124,-1.716164,1608115509204,0.000000,0.001745,0.000000
1608115509238,1608115508157,0.304006,-9.345737,-1.775004,1608115509237,0.000000,0.000000,0.001745
1608115509271,1608115508181,0.362846,-9.306511,-1.775004,1608115509271,-0.003491,0.000000,0.000000
1608115509305,1608115508205,0.343233,-9.267284,-1.775004,1608115509304,0.000000,0.001745,0.000000
1608115509338,1608115508228,0.323619,-9.306511,-1.735777,1608115509338,0.000000,0.003491,0.000000
1608115509372,1608115508248,0.323619,-9.326124,-1.735777,1608115509371,0.000000,0.003491,0.001745
1608115509405,1608115508272,0.323619,-9.326124,-1.775004,1608115509405,-0.001745,0.000000,0.001745
1608115509438,1608115508299,0.382459,-9.306511,-1.696550,1608115509438,0.000000,0.006981,0.000000
1608115509472,1608115508319,0.304006,-9.306511,-1.775004,1608115509471,-0.001745,0.003491,-0.001745
1608115509505,1608115508343,0.343233,-9.286898,-1.755390,1608115509505,0.000000,0.001745,0.001745
1608115509539,1608115508362,0.362846,-9.345737,-1.755390,1608115509538,0.000000,0.001745,0.001745
1608115509572,1608115508378,0.323619,-9.345737,-1.775004,1608115509572,0.000000,0.003491,0.000000
1608115509606,1608115508398,0.323619,-9.286898,-1.794617,1608115509605,-0.003491,0.001745,0.005236
1608115509639,1608115508414,0.343233,-9.306511,-1.657324,1608115509639,-0.001745,0.005236,0.000000
1608115509673,1608115508433,0.343233,-9.326124,-1.755390,1608115509672,0.000000,0.000000,0.003491
1608115509706,1608115508449,0.362846,-9.306511,-1.716164,1608115509706,0.000000,0.000000,0.001745
1608115509740,1608115508469,0.343233,-9.267284,-1.735777,1608115509739,-0.001745,0.005236,0.001745
1608115509773,1608115508488,0.382459,-9.286898,-1.814230,1608115509773,-0.001745,0.001745,0.000000
1608115509806,1608115508504,0.343233,-9.286898,-1.676937,1608115509805,0.000000,0.005236,0.000000
1608115509840,1608115508524,0.382459,-9.345737,-1.676937,1608115509839,0.000000,0.003491,0.000000
1608115509873,1608115508544,0.304006,-9.365351,-1.696550,1608115509873,0.000000,0.003491,0.000000
1608115509907,1608115509079,0.343233,-9.286898,-1.735777,1608115509906,0.000000,0.003491,0.001745
1608115509940,1608115509103,0.362846,-9.326124,-1.794617,1608115509939,-0.003491,0.003491,0.000000
1608115509974,1608115509123,0.343233,-9.365351,-1.775004,1608115509973,0.000000,0.001745,0.000000
1608115510007,1608115509139,0.343233,-9.345737,-1.775004,1608115510007,-0.001745,0.001745,0.000000
1608115510040,1608115509158,0.362846,-9.345737,-1.775004,1608115510040,0.012217,-0.033161,0.000000
1608115510074,1608115509170,0.323619,-9.326124,-1.775004,1608115510073,0.006981,0.048869,-0.010472
1608115510107,1608115509190,0.323619,-9.326124,-1.833843,1608115510107,-0.005236,0.061087,-0.008727
1608115510141,1608115509206,0.343233,-9.286898,-1.814230,1608115510140,0.003491,-0.029671,0.005236
1608115510174,1608115509221,-1.010085,-9.384964,-0.686466,1608115510174,-0.001745,0.026180,-0.003491
1608115510208,1608115509229,3.638267,-8.208166,0.813952,1608115510205,-0.005236,0.017453,-0.001745
1608115510241,1608115509241,0.186326,-10.169496,-0.686466,1608115510240,0.005236,0.022689,-0.005236
1608115510275,1608115509253,-0.529559,-9.767424,-1.510224,1608115510274,0.000000,-0.005236,0.003491
1608115510308,1608115509261,-1.412158,-10.414662,-2.098623,1608115510305,-0.003491,0.005236,-0.001745
1608115510341,1608115509273,-0.264780,-9.306511,0.304006,1608115510341,-0.001745,0.008727,0.000000
1608115510375,1608115509284,1.412158,-9.012311,-0.343233,1608115510372,0.000000,-0.001745,0.005236
1608115510408,1608115509292,-0.549172,-9.149604,-1.274864,1608115510406,-0.005236,-0.008727,0.000000
1608115510442,1608115509312,-0.304006,-9.532063,-1.990750,1608115510441,0.000000,0.005236,0.000000
1608115510475,1608115509328,-0.088260,-8.924051,-1.127765,1608115510475,-0.003491,0.000000,0.000000
1608115510509,1608115509347,1.049312,-9.071151,-1.412158,1608115510508,0.000000,0.005236,0.000000
1608115510542,1608115509375,0.470719,-9.326124,-1.627904,1608115510542,0.001745,0.001745,0.000000
1608115510576,1608115509391,0.029420,-9.365351,-1.608291,1608115510575,0.000000,0.003491,-0.001745
1608115510609,1608115509407,0.225553,-9.286898,-1.627904,1608115510609,-0.001745,0.001745,-0.003491
1608115510643,1608115509426,0.402073,-9.286898,-1.657324,1608115510642,0.000000,0.001745,0.001745
1608115510676,1608115509442,-0.088260,-9.247671,-1.716164,1608115510676,0.000000,0.003491,0.000000
1608115510710,1608115509458,0.323619,-9.286898,-1.971137,1608115510709,0.000000,0.006981,0.000000
1608115510743,1608115509478,0.451106,-9.267284,-1.696550,1608115510743,-0.001745,0.003491,0.000000
1608115510777,1608115509493,0.284393,-9.414384,-1.833843,1608115510776,0.000000,0.001745,0.000000
1608115510810,1608115509513,0.323619,-9.365351,-1.892683,1608115510810,-0.003491,0.005236,-0.001745
1608115510844,1608115509533,0.264780,-9.306511,-1.892683,1608115510843,0.000000,0.005236,0.000000
1608115510877,1608115509552,0.362846,-9.267284,-1.627904,1608115510877,-0.003491,0.006981,0.000000
1608115510911,1608115509572,0.225553,-9.286898,-1.873070,1608115510910,-0.001745,0.006981,0.000000
1608115510944,1608115509930,0.402073,-9.326124,-1.627904,1608115510944,0.000000,0.001745,0.000000
1608115510978,1608115509949,0.323619,-9.365351,-1.892683,1608115510977,0.000000,0.000000,0.000000
1608115511011,1608115509965,0.431493,-9.306511,-1.676937,1608115511011,-0.003491,0.001745,0.001745
1608115511044,1608115509985,0.362846,-9.306511,-1.676937,1608115511044,0.001745,0.000000,0.001745
1608115511078,1608115510000,0.362846,-9.306511,-1.627904,1608115511078,-0.003491,0.000000,0.000000
1608115511111,1608115510020,0.382459,-9.384964,-1.735777,1608115511111,0.000000,0.003491,0.000000
1608115511145,1608115510040,0.362846,-9.345737,-1.755390,1608115511144,0.001745,0.003491,0.000000
1608115511179,1608115510075,0.304006,-9.286898,-1.716164,1608115511178,-0.001745,0.000000,0.001745
1608115511212,1608115510095,0.402073,-9.326124,-1.775004,1608115511212,0.000000,0.003491,0.000000
1608115511246,1608115510119,0.304006,-9.365351,-1.814230,1608115511245,0.000000,0.001745,0.001745
1608115511279,1608115510142,0.304006,-9.286898,-1.853457,1608115511279,0.000000,0.001745,0.000000
1608115511313,1608115510162,0.382459,-9.286898,-1.814230,1608115511312,-0.001745,0.000000,-0.001745
1608115511379,1608115510205,0.382459,-9.306511,-1.794617,1608115511379,-0.001745,0.000000,-0.001745
1608115511413,1608115510225,0.382459,-9.286898,-1.755390,1608115511413,-0.001745,0.001745,0.000000
1608115511446,1608115510249,0.382459,-9.345737,-1.735777,1608115511446,0.000000,0.001745,0.000000
1608115511480,1608115510272,0.284393,-9.365351,-1.696550,1608115511480,0.000000,0.005236,0.000000
1608115511513,1608115510296,0.304006,-9.326124,-1.775004,1608115511513,-0.005236,0.001745,0.001745
1608115511547,1608115510319,0.343233,-9.306511,-1.755390,1608115511546,0.000000,0.000000,0.000000
1608115511580,1608115510339,0.382459,-9.326124,-1.735777,1608115511580,0.000000,0.005236,0.000000
1608115511614,1608115510359,0.362846,-9.365351,-1.755390,1608115511613,0.001745,0.001745,0.001745
1608115511647,1608115510382,0.284393,-9.326124,-1.755390,1608115511647,0.000000,0.001745,0.000000
1608115511681,1608115510386,0.264780,-9.286898,-1.755390,1608115511647,-0.001745,0.000000,0.003491
1608115511746,1608115510410,0.343233,-9.326124,-1.755390,1608115511746,0.000000,0.000000,0.001745
1608115511780,1608115510961,0.490332,-9.306511,-1.716164,1608115511779,0.000000,-0.001745,0.003491
1608115511813,1608115510981,0.264780,-9.365351,-1.794617,1608115511813,-0.003491,0.008727,0.000000
1608115511847,1608115511000,0.382459,-9.345737,-1.814230,1608115511846,0.000000,0.005236,0.003491
1608115511880,1608115511020,0.343233,-9.365351,-1.794617,1608115511879,-0.003491,0.001745,0.000000
1608115511913,1608115511040,0.343233,-9.306511,-1.716164,1608115511913,0.000000,0.001745,0.001745
1608115511947,1608115511059,0.284393,-9.306511,-1.676937,1608115511947,-0.001745,0.005236,0.000000
1608115511980,1608115511063,0.304006,-9.365351,-1.912297,1608115511947,-0.001745,0.005236,-0.001745
1608115512014,1608115511087,0.343233,-9.286898,-1.676937,1608115512014,-0.003491,0.008727,0.001745
1608115512047,1608115511110,0.343233,-9.404577,-1.696550,1608115512047,-0.001745,0.005236,0.000000
1608115512081,1608115511138,0.323619,-9.365351,-1.569064,1608115512081,-0.003491,0.003491,-0.003491
1608115512114,1608115511169,0.343233,-9.384964,-1.637710,1608115512114,-0.005236,0.006981,0.000000
1608115512148,1608115511197,0.382459,-9.345737,-1.588677,1608115512148,0.000000,0.005236,-0.001745
1608115512181,1608115511224,0.402073,-9.326124,-1.735777,1608115512181,-0.001745,0.000000,0.001745
1608115512215,1608115511244,0.362846,-9.345737,-1.608291,1608115512215,0.000000,0.001745,0.000000
1608115512248,1608115511268,0.323619,-9.286898,-1.627904,1608115512248,-0.001745,0.005236,-0.001745
1608115512282,1608115511291,0.264780,-9.267284,-1.716164,1608115512281,0.000000,0.000000,0.000000
1608115512315,1608115511311,0.382459,-9.404577,-1.657324,1608115512315,0.000000,0.006981,0.000000
1608115512349,1608115511326,0.382459,-9.384964,-1.657324,1608115512349,-0.001745,0.000000,0.000000
1608115512382,1608115511338,0.382459,-9.365351,-1.627904,1608115512382,-0.003491,0.001745,-0.003491
1608115512416,1608115511354,0.343233,-9.306511,-1.588677,1608115512415,0.000000,-0.003491,0.000000
1608115512449,1608115511370,0.304006,-9.286898,-1.608291,1608115512449,0.000000,0.000000,0.000000
1608115512483,1608115511385,0.264780,-9.365351,-1.637710,1608115512482,-0.003491,0.003491,0.000000
1608115512516,1608115511409,0.402073,-9.306511,-1.716164,1608115512516,0.000000,0.006981,-0.001745
1608115512550,1608115511429,0.411879,-9.345737,-1.775004,1608115512550,0.001745,0.001745,0.001745
1608115512583,1608115511444,0.382459,-9.365351,-1.775004,1608115512583,-0.001745,0.000000,0.000000
1608115512617,1608115511790,0.343233,-9.512450,-1.490611,1608115512616,-0.001745,-0.001745,0.000000
1608115512650,1608115511806,0.362846,-9.267284,-1.431771,1608115512650,-0.001745,0.003491,0.000000
1608115512684,1608115511825,0.284393,-9.453610,-1.490611,1608115512683,0.003491,0.000000,-0.003491
1608115512717,1608115511845,0.284393,-9.365351,-1.549451,1608115512717,0.000000,-0.003491,0.000000
1608115512751,1608115511861,0.382459,-9.453610,-1.166991,1608115512750,0.000000,0.000000,0.000000
1608115512784,1608115511884,0.451106,-9.433997,-1.333704,1608115512784,0.000000,0.000000,-0.006981
1608115512818,1608115511900,0.382459,-9.453610,-1.451384,1608115512817,0.005236,-0.005236,0.001745
1608115512851,1608115511908,0.245166,-9.473224,-1.274864,1608115512849,0.006981,0.005236,-0.003491
1608115512885,1608115511931,0.284393,-9.453610,-1.186605,1608115512884,0.005236,-0.010472,-0.003491
1608115512918,1608115511947,0.088260,-9.473224,-0.912018,1608115512918,0.006981,0.003491,-0.003491
1608115512952,1608115511963,0.323619,-9.453610,-0.813952,1608115512951,0.005236,0.000000,-0.003491
1608115512985,1608115511979,0.549172,-9.473224,-0.813952,1608115512985,0.001745,0.001745,-0.008727
1608115513019,1608115512007,0.627626,-9.590903,-1.186605,1608115513018,0.000000,-0.019199,-0.001745
1608115513052,1608115512018,0.362846,-9.404577,-1.049312,1608115513052,-0.005236,-0.006981,0.000000
1608115513086,1608115512038,-0.166713,-9.767424,-0.813952,1608115513085,0.001745,0.008727,-0.006981
1608115513119,1608115512058,0.470719,-9.649743,-0.402073,1608115513119,0.003491,0.003491,-0.005236
1608115513153,1608115512074,0.608012,-9.630130,-0.666852,1608115513152,0.000000,-0.013963,-0.003491
1608115513186,1608115512089,0.343233,-9.787037,-0.833565,1608115513186,0.000000,-0.022689,-0.005236
1608115513220,1608115512113,0.127486,-9.630130,-0.725692,1608115513219,0.000000,-0.020944,-0.006981
1608115513253,1608115512129,0.402073,-9.708583,-0.509946,1608115513252,-0.003491,-0.015708,-0.006981
1608115513287,1608115512144,-0.205940,-9.169217,-0.382459,1608115513286,0.003491,-0.017453,0.003491
1608115513320,1608115512160,0.343233,-9.326124,-0.225553,1608115513320,0.001745,-0.006981,-0.001745
1608115513354,1608115512164,0.304006,-9.669356,-0.529559,1608115513320,0.008727,-0.015708,0.000000
1608115513433,1608115512207,0.588399,-10.012589,-1.029698,1608115513433,0.010472,-0.010472,-0.008727
1608115513467,1608115512235,0.382459,-9.747809,-0.451106,1608115513466,0.000000,0.005236,-0.012217
1608115513500,1608115512263,0.225553,-9.365351,-0.186326,1608115513500,-0.001745,-0.010472,-0.005236
1608115513534,1608115512282,1.225831,-9.688970,0.362846,1608115513533,-0.001745,0.000000,0.000000
1608115513567,1608115512633,-1.166991,-9.532063,-1.451384,1608115513567,0.001745,-0.031416,0.001745
1608115513601,1608115512653,1.166991,-8.747532,-0.931632,1608115513600,0.012217,0.013963,-0.003491
1608115513634,1608115512672,-2.333983,-9.492837,-0.813952,1608115513634,0.006981,-0.005236,-0.003491
1608115513668,1608115512692,2.010363,-9.149604,-0.970858,1608115513667,0.008727,0.031416,-0.019199
1608115513701,1608115512712,-1.372931,-9.492837,-1.637710,1608115513701,0.000000,0.001745,0.010472
1608115513735,1608115512731,2.775282,-9.669356,-1.353318,1608115513734,-0.001745,0.010472,-0.003491
1608115513768,1608115512751,0.264780,-10.091043,-1.225831,1608115513767,0.019199,0.017453,0.003491
1608115513801,1608115512771,-0.872792,-9.836070,-0.784532,1608115513801,0.019199,-0.031416,-0.005236
1608115513835,1608115512791,0.804145,-9.188830,-0.725692,1608115513834,0.008727,-0.027925,0.015708
1608115513868,1608115512810,0.745305,-8.747532,-0.205940,1608115513868,0.000000,0.005236,-0.005236
1608115513902,1608115512822,-1.255251,-9.051538,-1.029698,1608115513901,-0.008727,-0.024435,-0.001745
1608115513935,1608115512838,-0.745305,-9.532063,-1.608291,1608115513935,-0.001745,0.006981,0.000000
1608115513968,1608115512854,2.559536,-9.453610,0.186326,1608115513968,0.003491,0.020944,0.000000
1608115514002,1608115512873,-1.392544,-9.806650,-0.745305,1608115514002,0.000000,0.001745,0.005236
1608115514035,1608115512897,1.931910,-10.816734,-1.470997,1608115514035,0.000000,0.024435,-0.012217
1608115514069,1608115512917,0.490332,-9.267284,-2.294756,1608115514068,-0.005236,0.017453,-0.005236
1608115514102,1608115512932,-2.137850,-8.629851,-1.510224,1608115514102,0.000000,0.024435,0.000000
1608115514136,1608115512948,2.451663,-9.071151,-0.951245,1608115514135,0.000000,-0.001745,0.005236
1608115514169,1608115512964,2.314369,-9.571290,-1.657324,1608115514169,0.008727,0.020944,-0.017453
1608115514202,1608115512987,-0.470719,-9.816457,0.588399,1608115514202,0.008727,0.029671,-0.008727
1608115514236,1608115513003,-0.784532,-9.747809,0.147100,1608115514235,0.000000,-0.005236,0.006981
1608115514269,1608115513023,0.009807,-9.571290,-1.971137,1608115514269,-0.005236,0.061087,-0.005236
1608115514303,1608115513046,-0.147100,-9.404577,-0.362846,1608115514302,0.003491,-0.024435,-0.001745
1608115514336,1608115513066,1.529837,-9.433997,-1.833843,1608115514336,0.020944,0.019199,0.012217
1608115514370,1608115513086,-1.931910,-9.708583,-1.931910,1608115514369,0.006981,-0.010472,0.008727
1608115514403,1608115513101,-2.657602,-9.590903,-0.872792,1608115514403,-0.006981,0.008727,0.006981
1608115514437,1608115513566,-3.285228,-10.659828,-5.668243,1608115514436,0.005236,0.012217,0.000000
1608115514470,1608115513585,6.835235,-8.845598,0.009807,1608115514470,-0.022689,0.095993,0.000000
1608115514503,1608115513601,2.716442,-9.365351,-2.755669,1608115514503,-0.012217,0.024435,-0.003491
1608115514537,1608115513621,-1.225831,-10.051816,-3.285228,1608115514536,-0.024435,0.015708,0.012217
1608115514570,1608115513641,1.147378,-11.012868,0.029420,1608115514570,0.029671,0.038397,-0.006981
1608115514604,1608115513656,-0.784532,-9.688970,-1.068925,1608115514603,-0.001745,0.017453,0.006981
1608115514637,1608115513668,1.068925,-9.806650,0.411879,1608115514637,-0.017453,-0.024435,0.017453
1608115514671,1608115513684,0.666852,-10.395049,-3.520587,1608115514670,-0.036652,-0.050615,0.017453
1608115514704,1608115513703,1.392544,-10.257755,-3.804980,1608115514704,-0.012217,0.000000,-0.001745
1608115514737,1608115513723,-0.490332,-8.306232,0.225553,1608115514737,-0.005236,-0.008727,0.001745
1608115514771,1608115513743,2.539922,-7.139241,2.059397,1608115514771,-0.031416,0.003491,0.017453
1608115514804,1608115513762,-1.274864,-8.786758,-1.873070,1608115514804,0.019199,-0.012217,-0.003491
1608115514838,1608115513786,3.304841,-10.532342,-2.079010,1608115514837,-0.006981,0.047124,0.012217
1608115514871,1608115513814,1.873070,-10.610795,-1.470997,1608115514871,-0.048869,0.076794,-0.012217
1608115514905,1608115513841,-1.029698,-11.032481,-3.324454,1608115514904,0.005236,0.047124,0.010472
1608115514938,1608115513869,-0.647239,-9.551677,-3.059675,1608115514937,-0.005236,-0.061087,0.017453
1608115514971,1608115513896,-2.637989,-10.797121,-3.706914,1608115514971,-0.045379,-0.068068,0.024435
1608115515005,1608115513924,0.725692,-11.414940,-3.402907,1608115515004,0.019199,0.020944,0.013963
1608115515038,1608115513948,-1.333704,-8.904438,-1.206218,1608115515038,-0.003491,0.034907,0.010472
1608115515072,1608115513971,0.892405,-9.473224,-1.412158,1608115515071,-0.008727,-0.005236,0.024435
1608115515105,1608115513991,3.383294,-7.786480,4.187439,1608115515105,-0.022689,0.061087,0.017453
1608115515138,1608115514015,2.677215,-10.493115,-1.931910,1608115515138,-0.020944,-0.080285,0.001745
1608115515172,1608115514046,-0.529559,-8.963278,-3.706914,1608115515172,-0.001745,0.001745,0.017453
1608115515205,1608115514440,-3.481361,-8.306232,-0.784532,1608115515205,0.012217,-0.048869,0.010472
1608115515239,1608115514472,1.627904,-8.119906,1.372931,1608115515238,-0.071558,0.006981,-0.001745
1608115515272,1608115514499,1.637710,-9.012311,-1.490611,1608115515272,-0.013963,0.055851,0.052360
1608115515305,1608115514527,4.442412,-7.217694,1.608291,1608115515305,-0.041888,0.057596,-0.003491
1608115515339,1608115514550,0.382459,-13.886216,0.343233,1608115515339,-0.034907,-0.083776,0.031416
1608115515372,1608115514570,-5.648630,-12.729032,-4.883712,1608115515372,-0.024435,0.024435,-0.001745
1608115515406,1608115514590,7.443247,-9.630130,-3.402907,1608115515405,-0.033161,-0.029671,-0.001745
1608115515439,1608115514610,-5.432884,-7.521700,2.461469,1608115515439,0.005236,-0.017453,-0.003491
1608115515473,1608115514629,-3.304841,-6.256642,2.657602,1608115515472,-0.034907,0.000000,0.008727
1608115515506,1608115514649,-1.431771,-7.315761,-1.010085,1608115515505,-0.033161,-0.013963,-0.020944
1608115515539,1608115514673,-4.040339,-10.453889,-0.529559,1608115515539,0.000000,0.006981,0.017453
1608115515573,1608115514696,4.079566,-7.600153,1.794617,1608115515573,-0.012217,-0.020944,-0.006981
1608115515606,1608115514716,-2.461469,-9.228058,-1.510224,1608115515606,0.005236,-0.111701,0.017453
1608115515640,1608115514736,0.490332,-8.943665,-2.314369,1608115515639,-0.001745,-0.012217,-0.022689
1608115515673,1608115514755,-0.323619,-9.669356,-1.225831,1608115515673,-0.001745,-0.024435,-0.024435
1608115515706,1608115514775,-2.559536,-9.012311,2.883155,1608115515706,-0.026180,0.139626,-0.027925
1608115515740,1608115514791,-2.353596,-10.414662,-1.569064,1608115515739,0.001745,0.045379,-0.080285
1608115515773,1608115514811,-3.040061,-9.414384,-2.216303,1608115515773,-0.001745,-0.054105,0.005236
1608115515807,1608115514838,4.422799,-10.208722,-1.108151,1608115515806,0.017453,-0.085521,-0.003491
1608115515840,1608115514866,-0.588399,-8.286619,-0.264780,1608115515840,0.015708,0.020944,-0.003491
1608115515874,1608115514893,-0.813952,-9.267284,-0.912018,1608115515873,0.000000,-0.057596,-0.027925
1608115515907,1608115514921,-1.333704,-7.080401,3.540200,1608115515907,0.008727,-0.017453,0.015708
1608115515940,1608115514937,-7.178468,-13.592016,-5.334817,1608115515939,0.012217,-0.026180,-0.020944
1608115516007,1608115515240,2.657602,-11.660107,-3.657880,1608115516007,-0.027925,-0.069813,-0.026180
1608115516041,1608115515260,-1.735777,-9.071151,-0.245166,1608115516040,-0.015708,0.108210,0.017453
1608115516074,1608115515276,-2.579149,-8.590625,-1.775004,1608115516073,-0.005236,0.043633,0.005236
1608115516108,1608115515292,-3.883433,-9.855683,-1.676937,1608115516107,0.015708,0.036652,-0.043633
1608115516141,1608115515315,0.529559,-10.855961,-0.451106,1608115516141,-0.048869,-0.130900,0.040143
1608115516174,1608115515339,-0.745305,-8.443525,-3.402907,1608115516174,0.000000,-0.040143,0.034907
1608115516208,1608115515355,5.550564,-9.090764,0.509946,1608115516207,-0.008727,0.082030,0.001745
1608115516241,1608115515378,-3.138128,-8.443525,0.431493,1608115516241,0.052360,0.005236,-0.001745
1608115516275,1608115515394,-3.196968,-8.482752,-3.402907,1608115516274,-0.010472,0.071558,0.006981
1608115516308,1608115515414,7.296147,-7.404021,0.264780,1608115516308,-0.034907,0.122173,-0.017453
1608115516342,1608115515426,2.637989,-7.001948,0.323619,1608115516341,-0.012217,-0.099484,0.034907
1608115516375,1608115515433,-7.737447,-4.422799,0.549172,1608115516374,0.001745,-0.027925,0.073304
1608115516408,1608115515449,-2.255529,-12.885938,1.549451,1608115516408,-0.001745,-0.045379,0.013963
1608115516442,1608115515461,-3.442134,-10.071429,-0.049033,1608115516439,-0.008727,-0.089012,-0.003491
1608115516475,1608115515477,-1.029698,-12.444638,-0.647239,1608115516475,-0.024435,0.003491,0.029671
1608115516509,1608115515489,-4.001113,-13.150718,0.431493,1608115516508,-0.013963,0.090757,-0.006981
1608115516542,1608115515500,-5.305398,-11.483587,-2.677215,1608115516542,0.000000,0.068068,-0.040143
1608115516576,1608115515508,1.235638,-12.709418,3.540200,1608115516574,0.006981,0.066323,0.027925
1608115516609,1608115515524,1.627904,-6.541035,-4.932745,1608115516609,-0.013963,0.031416,0.061087
1608115516643,1608115515544,1.490611,-6.217416,-6.256642,1608115516642,0.017453,-0.137881,0.010472
1608115516676,1608115515559,-4.530672,-12.984004,-0.431493,1608115516676,0.034907,-0.085521,0.050615
1608115516709,1608115515579,-0.225553,-11.817013,-1.049312,1608115516709,0.033161,0.019199,-0.054105
1608115516743,1608115515599,0.382459,-10.855961,-2.079010,1608115516742,0.022689,0.150098,0.000000
1608115516776,1608115515619,-3.177355,-7.335374,4.422799,1608115516776,-0.010472,0.015708,-0.019199
1608115516810,1608115515638,4.020726,-8.727919,3.255808,1608115516809,0.001745,-0.047124,0.000000
1608115516843,1608115515662,-2.275143,-8.100293,5.472111,1608115516843,0.013963,-0.048869,-0.040143
1608115516877,1608115515690,6.217416,-11.797400,-1.951523,1608115516876,0.043633,-0.129154,-0.075049
1608115516910,1608115515938,-3.344068,-10.551955,-4.491446,1608115516910,-0.008727,0.134390,-0.040143
1608115516944,1608115515958,-1.814230,-10.718668,-2.098623,1608115516943,-0.012217,-0.123918,0.006981
1608115516977,1608115515981,-4.040339,-9.247671,-1.716164,1608115516977,0.008727,-0.130900,-0.001745
1608115517011,1608115516013,4.913132,-9.051538,3.098901,1608115517010,0.043633,-0.076794,-0.012217
1608115517044,1608115516041,12.944777,-8.443525,4.265893,1608115517044,0.020944,-0.087266,-0.012217
1608115517078,1608115516064,-4.609126,-7.678607,-2.481082,1608115517077,0.001745,-0.015708,-0.052360
1608115517111,1608115516084,-0.009807,-8.708305,0.362846,1608115517111,0.017453,-0.068068,-0.061087
1608115517144,1608115516112,-3.599041,-9.953750,-1.912297,1608115517144,-0.006981,-0.169297,0.019199
1608115517178,1608115516135,-0.029420,-11.836626,-1.147378,1608115517178,0.020944,-0.261799,-0.017453
1608115517211,1608115516159,-3.040061,-11.081514,-1.971137,1608115517211,-0.019199,-0.038397,0.000000
1608115517245,1608115516175,-1.431771,-9.571290,-0.892405,1608115517245,0.040143,0.017453,-0.054105
1608115517278,1608115516195,-1.127765,-10.110656,-3.618654,1608115517278,0.013963,-0.132645,-0.038397
1608115517312,1608115516215,4.511059,-9.836070,-1.235638,1608115517311,-0.024435,0.247837,-0.003491
1608115517345,1608115516234,1.451384,-7.384407,1.147378,1608115517345,0.102974,0.066323,0.015708
1608115517379,1608115516258,0.764919,-9.228058,0.764919,1608115517378,0.000000,0.059341,-0.045379
1608115517412,1608115516278,1.510224,-10.630408,-6.295869,1608115517412,-0.033161,0.183260,-0.019199
1608115517446,1608115516298,-5.511337,-8.806372,-8.306232,1608115517445,0.005236,-0.068068,-0.024435
1608115517479,1608115516317,6.874462,-9.747809,4.128600,1608115517479,-0.020944,0.059341,0.001745
1608115517513,1608115516337,4.883712,-7.521700,-2.539922,1608115517513,0.031416,0.012217,-0.010472
1608115517580,1608115516373,5.550564,-5.874183,4.001113,1608115517579,0.031416,-0.008727,0.013963
1608115517613,1608115516393,-10.208722,-9.012311,-7.600153,1608115517613,0.029671,-0.050615,0.047124
1608115517647,1608115516412,5.834957,-12.121019,-8.767145,1608115517646,-0.026180,-0.073304,-0.024435
1608115517680,1608115516432,-1.186605,-11.522814,-1.186605,1608115517680,-0.022689,-0.034907,0.003491
1608115517714,1608115516919,-0.186326,-8.943665,-0.205940,1608115517713,-0.005236,0.017453,-0.036652
1608115517747,1608115516939,-4.128600,-9.806650,-2.235916,1608115517747,-0.031416,0.115192,0.017453
1608115517781,1608115516959,0.706079,-10.512729,-0.627626,1608115517780,-0.020944,-0.010472,0.036652
1608115517814,1608115516974,4.903325,-8.227779,-0.382459,1608115517814,-0.027925,0.134390,-0.010472
1608115517869,1608115516994,-1.794617,-9.247671,1.549451,1608115517869,-0.043633,0.012217,0.019199
1608115517903,1608115517014,-4.785645,-9.630130,-5.413270,1608115517902,-0.017453,-0.047124,0.059341
1608115517936,1608115517034,9.031924,-11.905272,-0.402073,1608115517936,-0.008727,0.144862,-0.015708
1608115517970,1608115517057,-5.168105,-9.384964,-2.275143,1608115517969,0.001745,0.094248,-0.001745
1608115518003,1608115517077,1.931910,-9.630130,-6.796008,1608115518003,-0.003491,0.109956,-0.036652
1608115518037,1608115517089,6.472389,-8.727919,-5.070038,1608115518036,-0.033161,-0.092502,0.036652
1608115518070,1608115517109,-3.255808,-7.041174,0.264780,1608115518070,0.000000,-0.102974,0.040143
1608115518104,1608115517128,1.510224,-8.590625,0.970858,1608115518103,-0.033161,0.062832,0.031416
1608115518137,1608115517148,0.745305,-9.306511,3.804980,1608115518137,-0.012217,-0.050615,0.000000
1608115518170,1608115517160,4.844485,-7.178468,-1.431771,1608115518170,-0.003491,-0.075049,0.017453
1608115518204,1608115517180,-5.305398,-9.129991,-1.931910,1608115518203,-0.022689,0.040143,-0.048869
1608115518237,1608115517203,1.853457,-7.502087,4.491446,1608115518237,-0.013963,0.038397,-0.008727
1608115518277,1608115517223,-1.873070,-10.032203,-4.442412,1608115518277,-0.027925,0.015708,0.034907
1608115518311,1608115517239,2.500696,-7.698220,4.491446,1608115518311,0.024435,-0.130900,0.031416
1608115518344,1608115517258,-2.981221,-11.297260,-4.766032,1608115518344,0.043633,0.055851,0.026180
1608115518378,1608115517278,-0.304006,-13.552790,-6.276256,1608115518377,0.015708,-0.080285,0.005236
1608115518411,1608115517298,-1.755390,-9.953750,-3.804980,1608115518411,-0.027925,-0.031416,-0.020944
1608115518445,1608115517314,0.725692,-9.453610,0.147100,1608115518444,-0.048869,0.022689,-0.017453
1608115518478,1608115517333,-2.294756,-8.747532,-1.696550,1608115518478,-0.013963,-0.034907,-0.022689
1608115518512,1608115517357,-2.275143,-10.757895,-0.529559,1608115518511,0.006981,-0.041888,0.013963
1608115518545,1608115517377,2.451663,-10.316595,-0.509946,1608115518545,-0.041888,0.122173,0.000000
1608115518578,1608115517400,-4.108986,-9.512450,1.088538,1608115518578,-0.031416,0.006981,0.043633
1608115518612,1608115517716,2.598762,-3.618654,2.579149,1608115518611,0.015708,0.064577,0.000000
1608115518645,1608115517736,-4.305119,-9.188830,-1.353318,1608115518645,-0.038397,-0.012217,-0.012217
1608115518679,1608115517755,-0.088260,-8.963278,-1.627904,1608115518678,-0.034907,0.000000,-0.041888
1608115518712,1608115517775,1.088538,-9.649743,-0.647239,1608115518712,0.000000,-0.083776,-0.010472
1608115518746,1608115517795,-7.276534,-10.130269,-3.618654,1608115518745,0.008727,-0.115192,0.031416
1608115518779,1608115517811,-1.274864,-7.884546,0.245166,1608115518779,-0.029671,0.075049,0.013963
1608115518813,1608115517822,-4.226666,-7.766867,0.764919,1608115518812,-0.020944,0.073304,0.024435
1608115518846,1608115517850,-1.637710,-12.787871,-6.335096,1608115518846,0.036652,-0.390954,0.090757
1608115518880,1608115517870,5.648630,-10.816734,2.392823,1608115518879,0.064577,-0.024435,-0.003491
1608115518913,1608115517889,-7.021561,-11.542427,4.246279,1608115518913,0.005236,0.191986,-0.034907
1608115518947,1608115517917,7.335374,-9.090764,-3.304841,1608115518946,-0.003491,-0.123918,0.013963
1608115518980,1608115517941,1.833843,-9.855683,-3.638267,1608115518980,0.005236,-0.326377,0.026180
1608115519014,1608115517956,2.255529,-7.698220,3.196968,1608115519013,-0.075049,0.005236,-0.015708
1608115519047,1608115517976,-0.225553,-8.767145,-1.627904,1608115519047,0.019199,0.106465,-0.062832
1608115519080,1608115517992,6.197803,-9.551677,9.345737,1608115519080,0.024435,0.036652,0.019199
1608115519114,1608115518012,-6.276256,-9.365351,11.503201,1608115519114,0.095993,0.050615,-0.003491
1608115519147,1608115518031,6.197803,-7.335374,1.912297,1608115519147,-0.075049,-0.080285,0.059341
1608115519181,1608115518051,-6.393936,-11.395327,-5.687857,1608115519181,-0.015708,0.066323,-0.017453
1608115519214,1608115518075,-1.990750,-12.807485,-6.894075,1608115519214,-0.022689,-0.033161,0.000000
1608115519248,1608115518098,7.658993,-7.315761,9.326124,1608115519248,0.043633,0.080285,0.001745
1608115519288,1608115518126,4.932745,-12.464252,-0.284393,1608115519288,-0.027925,-0.001745,0.054105
1608115519321,1608115518153,-0.362846,-11.336487,-0.745305,1608115519321,-0.066323,0.075049,0.036652
1608115519355,1608115518165,-5.354431,-9.630130,1.206218,1608115519354,0.038397,0.019199,0.027925
1608115519388,1608115518193,-8.100293,-11.218807,4.344346,1608115519388,-0.019199,-0.008727,0.054105
1608115519422,1608115518209,-10.738281,-6.433162,-0.686466,1608115519421,0.003491,0.099484,0.050615
1608115519455,1608115518622,14.572681,-8.590625,0.382459,1608115519454,-0.019199,0.059341,0.050615
1608115519488,1608115518642,-7.943386,-8.119906,1.696550,1608115519488,-0.052360,0.082030,0.057596
1608115519522,1608115518662,3.579427,-6.393936,10.473502,1608115519522,-0.087266,0.040143,0.089012
1608115519555,1608115518666,-10.993255,-8.178746,-8.884825,1608115519522,0.003491,0.349066,0.033161
1608115519591,1608115518689,5.050425,-13.229171,1.470997,1608115519590,0.036652,0.034907,0.087266
1608115519624,1608115518709,-7.560927,-6.433162,12.307345,1608115519624,-0.054105,0.240855,-0.008727
1608115519658,1608115518729,-0.666852,-7.315761,5.913410,1608115519657,0.003491,0.144862,0.029671
1608115519691,1608115518749,-2.059397,-9.973363,-4.628739,1608115519691,0.069813,0.008727,-0.012217
1608115519724,1608115518764,0.362846,-1.775004,8.904438,1608115519724,0.019199,-0.092502,0.001745
1608115519758,1608115518784,-4.991585,-5.736890,0.000000,1608115519758,0.101229,0.075049,-0.022689
1608115519791,1608115518800,-1.657324,-8.786758,4.707192,1608115519791,-0.017453,0.001745,-0.090757
1608115519825,1608115518812,-5.187718,-9.110377,-1.068925,1608115519824,0.015708,-0.176278,0.038397
1608115519858,1608115518831,2.500696,-11.454167,0.745305,1608115519858,-0.003491,0.055851,0.038397
1608115519892,1608115518847,1.294478,-11.679720,-4.628739,1608115519891,-0.048869,-0.263545,0.059341
1608115519925,1608115518867,1.657324,-10.051816,0.568786,1608115519925,-0.078540,-0.043633,0.033161
1608115519959,1608115518895,1.833843,-12.640772,-11.856239,1608115519958,-0.036652,0.101229,0.020944
1608115519992,1608115518918,-2.941995,-9.816457,-3.304841,1608115519992,-0.083776,-0.003491,-0.001745
1608115520025,1608115518942,4.040339,-7.217694,6.393936,1608115520025,-0.062832,-0.005236,0.102974
1608115520059,1608115518966,2.961608,-12.346572,-8.904438,1608115520058,0.010472,0.099484,0.036652
1608115520092,1608115518993,-0.912018,-12.101406,-10.130269,1608115520092,-0.015708,0.064577,0.052360
1608115520126,1608115519009,-19.397552,-9.414384,-8.041452,1608115520126,-0.048869,-0.038397,-0.001745
1608115520159,1608115519033,9.836070,-9.433997,9.787037,1608115520159,0.006981,-0.125664,0.022689
1608115520193,1608115519048,1.392544,-15.602380,-3.157741,1608115520192,0.027925,-0.205949,0.036652
1608115520226,1608115519072,0.951245,-4.207053,6.531229,1608115520226,0.022689,-0.022689,-0.001745
1608115520260,1608115519100,-2.079010,-9.649743,-6.138963,1608115520259,-0.013963,-0.027925,-0.047124
1608115520293,1608115519455,-2.059397,-11.620880,0.049033,1608115520293,0.000000,-0.010472,-0.050615
1608115520326,1608115519478,-1.392544,-9.728196,2.618376,1608115520326,0.003491,0.125664,-0.102974
1608115520360,1608115519498,-5.070038,-7.158854,3.422521,1608115520359,0.052360,-0.118682,-0.031416
1608115520427,1608115519541,7.923773,-5.687857,0.804145,1608115520426,0.048869,0.050615,0.015708
1608115520460,1608115519545,14.131382,-8.061066,10.296982,1608115520427,0.083776,0.001745,0.008727
1608115520527,1608115519608,-10.630408,-10.296982,-7.737447,1608115520527,-0.066323,0.085521,-0.041888
1608115520561,1608115519632,-10.993255,-11.601267,-5.168105,1608115520560,0.059341,0.137881,0.104720
1608115520594,1608115519660,-12.640772,-8.139520,9.326124,1608115520594,-0.019199,0.150098,0.027925
1608115520628,1608115519679,-11.179581,-10.630408,-9.669356,1608115520627,-0.026180,0.071558,-0.054105
1608115520661,1608115519703,-2.696829,-4.628739,-7.786480,1608115520661,-0.095993,-0.003491,-0.027925
1608115520695,1608115519727,-5.550564,-12.287732,-6.011477,1608115520694,0.027925,0.195477,-0.059341
1608115520728,1608115519746,-1.529837,-14.798235,-1.029698,1608115520728,0.061087,0.104720,0.027925
1608115520761,1608115519766,13.954863,-10.032203,7.315761,1608115520761,0.000000,-0.068068,0.038397
1608115520795,1608115519786,1.049312,-10.414662,-0.264780,1608115520794,-0.012217,-0.061087,-0.024435
1608115520828,1608115519805,-7.678607,-10.914802,-7.119628,1608115520828,0.020944,-0.085521,-0.001745
1608115520862,1608115519829,1.235638,-7.482474,-6.717555,1608115520861,0.000000,0.029671,-0.006981
1608115520895,1608115519849,-1.716164,-8.247393,-3.540200,1608115520894,-0.024435,0.094248,0.024435
1608115520928,1608115519872,-5.776117,-15.376827,-6.295869,1608115520928,0.008727,-0.139626,-0.012217
1608115520962,1608115519896,-3.098901,-7.698220,6.315483,1608115520961,-0.024435,0.017453,-0.034907
1608115520995,1608115519920,-9.110377,-12.679998,-7.462861,1608115520995,-0.033161,0.101229,-0.082030
1608115521029,1608115519947,-8.384686,-7.963000,-0.509946,1608115521028,0.008727,0.036652,0.005236
1608115521062,1608115520306,-1.569064,-10.993255,1.186605,1608115521062,-0.031416,-0.141372,0.024435
1608115521096,1608115520322,3.618654,-9.747809,-0.931632,1608115521095,0.071558,-0.240855,0.057596
1608115521129,1608115520337,2.775282,-11.101128,4.726805,1608115521129,0.068068,0.115192,0.022689
1608115521163,1608115520357,-11.454167,-13.650856,-0.784532,1608115521162,-0.034907,0.048869,-0.041888
1608115521196,1608115520381,0.745305,-5.952636,-0.627626,1608115521195,-0.036652,0.047124,0.006981
1608115521229,1608115520400,-7.139241,-6.952915,-1.912297,1608115521229,0.036652,0.167552,-0.062832
1608115521263,1608115520420,1.431771,-8.982891,1.235638,1608115521262,0.029671,0.059341,0.036652
1608115521296,1608115520440,-7.904160,-11.581654,-0.264780,1608115521296,-0.012217,0.136136,-0.057596
1608115521330,1608115520456,0.509946,-10.032203,2.539922,1608115521329,0.001745,-0.106465,-0.061087
1608115521363,1608115520475,2.755669,-10.434276,4.059953,1608115521363,0.000000,-0.125664,0.005236
1608115521396,1608115520491,-4.491446,-11.218807,-1.510224,1608115521396,0.015708,-0.218166,0.019199
1608115521430,1608115520511,1.892683,-7.217694,1.588677,1608115521430,0.019199,0.157080,-0.026180
1608115521463,1608115520527,14.209835,-5.893796,3.040061,1608115521463,-0.013963,-0.066323,-0.008727
1608115521497,1608115520546,4.491446,-8.708305,-1.971137,1608115521496,-0.043633,-0.089012,-0.031416
1608115521530,1608115520566,4.746418,-8.590625,4.766032,1608115521530,-0.040143,0.055851,0.005236
1608115521564,1608115520586,0.186326,-12.179859,-0.382459,1608115521563,0.038397,-0.024435,0.095993
1608115521597,1608115520601,0.245166,-9.345737,-3.118515,1608115521597,0.000000,0.094248,0.019199
1608115521630,1608115520617,4.864098,-12.062180,-6.580262,1608115521630,-0.083776,0.031416,-0.027925
1608115521664,1608115520633,0.568786,-6.560649,1.912297,1608115521663,-0.064577,0.364774,-0.005236
1608115521697,1608115520649,0.362846,-9.031924,-3.942273,1608115521697,0.008727,0.188496,-0.005236
1608115521731,1608115520664,-3.442134,-7.600153,1.490611,1608115521730,0.012217,0.205949,0.066323
1608115521764,1608115520684,-10.679441,-10.316595,-8.580818,1608115521764,-0.045379,0.146608,0.036652
1608115521797,1608115520704,-9.012311,-12.287732,-6.315483,1608115521797,0.059341,0.158825,-0.022689
1608115521831,1608115520727,0.872792,-11.699333,-1.637710,1608115521830,-0.008727,-0.031416,0.012217
1608115521864,1608115520755,3.324454,-10.493115,-0.431493,1608115521864,-0.026180,0.000000,0.027925
1608115521898,1608115520787,7.119628,-9.169217,-4.766032,1608115521897,0.071558,0.244346,-0.012217
1608115521931,1608115521078,9.649743,-9.953750,5.011198,1608115521931,0.013963,0.015708,0.059341
1608115521965,1608115521110,5.893796,-12.581932,-1.274864,1608115521964,-0.073304,0.268781,-0.054105
1608115521998,1608115521129,-1.990750,-12.405412,2.579149,1608115521997,-0.020944,-0.144862,0.111701
1608115522031,1608115521157,-9.630130,-8.884825,-3.402907,1608115522031,0.031416,0.200713,-0.061087
1608115522065,1608115521181,14.651134,-6.237029,1.873070,1608115522065,-0.015708,0.066323,0.045379
1608115522098,1608115521204,-2.637989,-4.040339,1.569064,1608115522098,-0.095993,-0.179769,0.001745
1608115522132,1608115521224,-7.423634,-7.560927,3.118515,1608115522131,0.015708,-0.113446,0.078540
1608115522165,1608115521248,0.470719,-14.553068,-10.453889,1608115522165,0.040143,0.108210,-0.062832
1608115522199,1608115521267,3.599041,-11.159967,1.990750,1608115522198,0.019199,0.006981,0.041888
1608115522232,1608115521291,14.092155,-6.913688,-0.706079,1608115522232,-0.015708,-0.106465,-0.008727
1608115522266,1608115521315,-11.522814,-7.757060,-1.873070,1608115522265,0.000000,-0.198968,0.087266
1608115522299,1608115521330,0.745305,-11.660107,-3.785367,1608115522299,0.097738,-0.162316,0.052360
1608115522333,1608115521354,-12.709418,-11.140354,5.893796,1608115522332,0.108210,0.188496,-0.043633
1608115522366,1608115521374,10.493115,-15.876966,-11.218807,1608115522366,0.029671,-0.092502,-0.045379
1608115522400,1608115521394,-9.767424,-11.836626,-8.423912,1608115522399,-0.008727,-0.038397,0.064577
1608115522433,1608115521413,5.933023,-8.404299,0.784532,1608115522433,0.073304,0.005236,0.031416
1608115522466,1608115521437,-13.366464,-10.954028,-9.286898,1608115522466,0.200713,-0.239110,-0.174533
1608115522500,1608115521461,-8.325846,-11.032481,-8.188553,1608115522500,0.246091,0.158825,-0.054105
1608115522533,1608115521488,-0.264780,-9.188830,0.568786,1608115522533,-0.027925,0.069813,-0.185005
1608115522567,1608115521512,3.844207,-8.100293,1.088538,1608115522566,0.022689,0.026180,-0.176278
1608115522600,1608115521536,-2.814508,-8.119906,-5.030811,1608115522600,0.069813,0.143117,0.054105
1608115522634,1608115521930,-2.275143,-11.797400,7.806093,1608115522633,-0.026180,-0.087266,-0.041888
1608115522667,1608115521953,13.111491,-16.180973,-15.033594,1608115522667,-0.055851,-0.052360,0.078540
1608115522701,1608115521981,-1.108151,-7.354987,1.696550,1608115522700,-0.001745,-0.190241,-0.001745
1608115522734,1608115522009,5.187718,-8.845598,-7.158854,1608115522733,-0.043633,-0.085521,0.087266
1608115522767,1608115522032,0.205940,-9.404577,3.677494,1608115522767,-0.080285,0.029671,-0.017453
1608115522801,1608115522056,0.588399,-8.365072,-3.216581,1608115522801,-0.076794,0.157080,0.000000
1608115522859,1608115522080,7.658993,-11.718946,-1.873070,1608115522859,-0.041888,0.040143,-0.012217
1608115522893,1608115522107,0.951245,-5.854570,-1.637710,1608115522892,-0.068068,0.148353,0.013963
1608115522926,1608115522127,7.296147,-6.374322,-4.148213,1608115522926,-0.024435,-0.029671,0.019199
1608115522960,1608115522147,5.952636,-7.315761,3.265614,1608115522959,0.003491,-0.181514,0.095993
1608115522993,1608115522162,-8.325846,-10.973641,-7.502087,1608115522993,0.050615,0.186750,0.001745
1608115523027,1608115522182,3.285228,-10.189109,-9.473224,1608115523026,0.045379,-0.043633,0.001745
1608115523060,1608115522206,-5.913410,-11.836626,-10.012589,1608115523059,-0.080285,0.106465,0.033161
1608115523093,1608115522226,3.177355,-11.856239,-10.051816,1608115523093,-0.080285,-0.172788,0.064577
1608115523127,1608115522246,5.011198,-5.511337,1.627904,1608115523126,-0.101229,-0.240855,0.169297
1608115523160,1608115522269,5.187718,-11.277647,-2.520309,1608115523160,-0.043633,-0.031416,0.083776
1608115523194,1608115522297,-10.954028,-8.580818,-0.049033,1608115523194,-0.099484,0.239110,-0.005236
1608115523227,1608115522321,7.737447,-8.580818,-3.363681,1608115523227,-0.150098,0.265290,0.027925
1608115523261,1608115522337,-10.954028,-9.188830,0.833565,1608115523260,-0.001745,0.017453,0.111701
1608115523294,1608115522357,7.580540,-9.806650,-5.648630,1608115523294,-0.108210,0.092502,0.003491
1608115523328,1608115522376,-7.757060,-10.659828,-4.305119,1608115523327,-0.109956,-0.031416,0.054105
1608115523361,1608115522396,7.639380,-7.521700,7.766867,1608115523361,0.050615,-0.055851,0.034907
1608115523395,1608115522416,-0.382459,-7.335374,-0.088260,1608115523394,0.024435,0.041888,-0.045379
1608115523428,1608115522634,-1.068925,-12.827098,-5.991863,1608115523427,-0.024435,-0.127409,0.019199
1608115523462,1608115522658,-5.668243,-6.531229,-10.934415,1608115523461,-0.113446,-0.144862,0.005236
1608115523495,1608115522674,6.697942,-8.286619,-6.894075,1608115523495,0.006981,-0.078540,0.041888
1608115523528,1608115522694,1.068925,-5.815343,-3.236194,1608115523528,0.052360,-0.043633,-0.001745
1608115523562,1608115522718,8.404299,-6.276256,-3.344068,1608115523562,-0.008727,-0.193732,0.012217
1608115523595,1608115522733,8.669079,-8.610238,4.089373,1608115523595,-0.015708,-0.005236,-0.075049
1608115523629,1608115522753,-0.451106,-7.845320,-6.874462,1608115523628,0.040143,-0.038397,-0.022689
1608115523662,1608115522781,6.815621,-5.834957,4.383573,1608115523662,-0.006981,-0.232129,0.036652
1608115523696,1608115522809,1.833843,-8.629851,-2.941995,1608115523695,-0.043633,-0.219911,-0.024435
1608115523729,1608115522837,-3.177355,-6.599875,-0.833565,1608115523729,0.064577,0.059341,-0.001745
1608115523762,1608115522860,-0.951245,-10.757895,-5.011198,1608115523762,0.097738,-0.029671,-0.020944
1608115523796,1608115522888,-10.738281,-11.522814,-5.334817,1608115523796,-0.017453,-0.188496,0.082030
1608115523829,1608115522920,-7.315761,-6.109543,-3.265614,1608115523829,-0.099484,-0.099484,0.031416
1608115523863,1608115522952,6.472389,-8.992698,-5.305398,1608115523863,0.022689,-0.200713,0.038397
1608115523896,1608115522980,11.718946,-9.031924,-9.512450,1608115523896,-0.089012,0.087266,-0.010472
1608115523930,1608115523011,-5.991863,-9.228058,-4.079566,1608115523929,0.083776,0.001745,-0.050615
1608115523963,1608115523039,4.079566,-3.098901,13.150718,1608115523963,-0.010472,-0.130900,-0.054105
1608115523996,1608115523070,3.138128,-10.208722,-2.196690,1608115523996,0.068068,-0.106465,0.027925
1608115524030,1608115523094,-1.814230,-11.395327,-3.706914,1608115524030,0.040143,-0.061087,-0.013963
1608115524063,1608115523122,0.107873,-9.806650,-6.511615,1608115524063,-0.055851,0.015708,-0.038397
1608115524097,1608115523438,1.127765,-9.992976,3.216581,1608115524096,-0.020944,0.101229,-0.129154
1608115524130,1608115523465,5.354431,-9.894910,-5.128878,1608115524130,0.054105,0.013963,-0.059341
1608115524164,1608115523485,-3.079288,-7.982613,-2.216303,1608115524163,0.013963,-0.212930,0.010472
1608115524230,1608115523513,2.118236,-8.247393,-5.756504,1608115524197,-0.080285,0.010472,-0.048869
1608115524303,1608115523552,-7.963000,-9.728196,-3.942273,1608115524303,0.055851,-0.190241,-0.017453
1608115524344,1608115523568,6.492002,-10.208722,-2.010363,1608115524343,0.029671,-0.054105,-0.019199
1608115524377,1608115523580,-8.845598,-9.973363,-4.530672,1608115524377,0.017453,-0.048869,-0.019199
1608115524411,1608115523592,-7.560927,-12.562319,-6.354709,1608115524410,0.015708,-0.165806,-0.026180
1608115524444,1608115523604,-8.286619,-10.914802,-5.668243,1608115524444,0.057596,-0.020944,-0.020944
1608115524478,1608115523623,1.853457,-8.286619,-5.736890,1608115524477,-0.024435,-0.155334,-0.073304
1608115524511,1608115523635,-7.001948,-7.158854,-4.971972,1608115524511,-0.013963,-0.099484,-0.050615
1608115524545,1608115523643,1.833843,-9.894910,-5.648630,1608115524542,0.027925,0.136136,-0.071558
1608115524578,1608115523663,3.765754,-8.365072,-2.775282,1608115524578,0.071558,-0.041888,-0.026180
1608115524612,1608115523683,-4.187439,-10.757895,-1.206218,1608115524611,0.038397,0.102974,-0.061087
1608115524645,1608115523698,4.344346,-9.433997,-5.854570,1608115524644,0.010472,-0.054105,0.020944
1608115524678,1608115523722,0.107873,-10.591182,2.029977,1608115524678,0.008727,0.017453,-0.040143
1608115524712,1608115523746,2.834122,-9.894910,-4.511059,1608115524711,0.013963,-0.106465,0.043633
1608115524745,1608115523773,23.290792,-8.482752,-1.333704,1608115524745,-0.015708,-0.176278,-0.052360
1608115524779,1608115523801,10.718668,-8.061066,-0.088260,1608115524779,0.068068,0.052360,0.036652
1608115524812,1608115523817,12.944777,-8.610238,1.990750,1608115524812,0.000000,0.036652,0.085521
1608115524846,1608115523837,-1.814230,-9.992976,-1.274864,1608115524845,-0.052360,-0.019199,-0.040143
1608115524879,1608115523852,-2.157463,-9.326124,-3.883433,1608115524879,-0.012217,0.102974,0.015708
1608115524913,1608115523872,-5.452497,-7.600153,-2.353596,1608115524912,-0.076794,0.111701,0.005236
1608115524946,1608115523900,8.159133,-10.228335,-4.226666,1608115524946,-0.027925,-0.008727,0.040143
1608115524980,1608115523920,-18.818960,-8.100293,-7.041174,1608115524979,-0.010472,0.127409,0.045379
1608115525013,1608115524097,-1.716164,-8.982891,-8.178746,1608115525012,0.054105,-0.006981,0.066323
1608115525046,1608115524121,0.343233,-9.414384,-7.943386,1608115525046,-0.024435,0.139626,0.038397
1608115525080,1608115524149,-1.608291,-10.934415,-3.383294,1608115525079,-0.052360,0.115192,-0.013963
1608115525113,1608115524164,-4.766032,-11.120741,-3.285228,1608115525113,-0.054105,0.137881,-0.001745
1608115525147,1608115524184,8.669079,-10.473502,-3.402907,1608115525146,0.005236,0.223402,-0.008727
1608115525180,1608115524200,-5.668243,-8.178746,1.353318,1608115525180,-0.024435,0.010472,0.059341
1608115525214,1608115524224,-6.217416,-8.649466,-4.462026,1608115525213,-0.019199,0.038397,0.055851
1608115525247,1608115524251,-0.813952,-5.432884,-6.796008,1608115525247,-0.015708,0.118682,0.043633
1608115525281,1608115524271,3.520587,-8.767145,-7.639380,1608115525280,-0.029671,0.256563,-0.041888
1608115525314,1608115524287,6.276256,-5.011198,2.981221,1608115525313,-0.008727,0.366519,-0.047124
1608115525356,1608115524306,-4.246279,-10.208722,-4.991585,1608115525355,-0.006981,-0.209440,0.061087
1608115525389,1608115524322,-7.766867,-9.208445,-4.020726,1608115525388,0.017453,0.027925,0.027925
1608115525422,1608115524342,5.187718,-7.256921,0.147100,1608115525422,-0.001745,-0.034907,0.005236
1608115525456,1608115524366,0.725692,-8.924051,-4.207053,1608115525455,0.019199,-0.029671,-0.013963
1608115525489,1608115524377,-10.797121,-10.640215,-6.335096,1608115525489,0.043633,0.160570,0.003491
1608115525523,1608115524397,6.874462,-7.678607,-4.265893,1608115525523,0.059341,0.186750,-0.038397
1608115525556,1608115524421,-0.068647,-10.591182,-7.354987,1608115525556,-0.015708,-0.101229,-0.027925
1608115525590,1608115524437,2.559536,-5.776117,1.529837,1608115525590,-0.038397,0.052360,0.003491
1608115525623,1608115524460,6.717555,-8.806372,-1.755390,1608115525623,-0.013963,-0.048869,0.064577
1608115525657,1608115524480,-3.442134,-9.247671,-3.344068,1608115525656,0.012217,-0.015708,0.015708
1608115525690,1608115524500,5.187718,-7.982613,-1.049312,1608115525690,-0.075049,0.069813,-0.005236
1608115525724,1608115524519,-1.676937,-8.021839,-4.687579,1608115525723,-0.062832,0.137881,0.006981
1608115525757,1608115524539,2.736055,-8.247393,-3.000835,1608115525757,-0.048869,0.160570,-0.005236
1608115525790,1608115524559,2.834122,-10.149882,-1.608291,1608115525790,-0.017453,0.069813,0.036652
1608115525824,1608115524563,1.657324,-11.866046,-6.531229,1608115525791,-0.057596,-0.125664,0.080285
1608115525857,1608115524587,-0.245166,-11.140354,-7.884546,1608115525857,-0.006981,0.120428,-0.034907
1608115525891,1608115525029,-5.550564,-8.747532,-6.717555,1608115525891,-0.006981,-0.087266,0.083776
1608115525924,1608115525044,3.402907,-7.502087,-4.491446,1608115525924,-0.029671,0.057596,0.062832
1608115525958,1608115525068,7.021561,-7.335374,0.362846,1608115525957,-0.015708,0.090757,-0.008727
1608115525991,1608115525080,6.472389,-7.100014,2.677215,1608115525991,0.041888,-0.061087,0.043633
1608115526025,1608115525096,-0.029420,-9.816457,-2.353596,1608115526024,0.071558,0.185005,0.008727
1608115526058,1608115525115,1.853457,-8.865211,1.549451,1608115526058,-0.005236,-0.022689,-0.043633
1608115526091,1608115525135,0.588399,-8.590625,-5.070038,1608115526091,-0.050615,-0.038397,-0.020944
1608115526125,1608115525147,2.539922,-8.845598,-4.265893,1608115526125,0.005236,0.071558,-0.015708
1608115526158,1608115525159,3.402907,-10.836348,-5.756504,1608115526158,0.038397,0.087266,-0.029671
1608115526192,1608115525186,0.951245,-9.610517,-6.374322,1608115526191,0.043633,0.069813,-0.005236
1608115526225,1608115525210,-7.335374,-8.580818,-5.030811,1608115526225,-0.006981,0.099484,-0.017453
1608115526259,1608115525238,6.129156,-6.276256,-0.451106,1608115526258,0.006981,0.061087,0.034907
1608115526292,1608115525265,4.020726,-9.590903,-5.933023,1608115526292,0.034907,0.034907,0.001745
1608115526325,1608115525281,10.679441,-5.511337,3.079288,1608115526325,0.006981,-0.001745,0.012217
1608115526359,1608115525305,0.725692,-7.786480,-0.745305,1608115526359,-0.015708,-0.010472,0.064577
1608115526392,1608115525332,0.088260,-9.992976,-4.667965,1608115526392,-0.038397,0.185005,-0.015708
1608115526426,1608115525336,6.619489,-8.904438,1.451384,1608115526392,-0.043633,-0.029671,0.031416
1608115526495,1608115525388,2.677215,-8.767145,-5.030811,1608115526495,-0.026180,-0.080285,0.047124
1608115526529,1608115525419,-1.333704,-8.669079,-6.658715,1608115526528,0.019199,0.172788,-0.001745
1608115526562,1608115525439,2.716442,-6.639102,-2.853735,1608115526562,0.010472,0.000000,0.055851
1608115526596,1608115525459,4.864098,-6.452775,-0.745305,1608115526595,-0.006981,0.160570,0.013963
1608115526629,1608115525486,-3.098901,-11.375713,-10.493115,1608115526629,-0.027925,0.102974,0.041888
1608115526663,1608115525510,-5.070038,-9.090764,-5.589790,1608115526662,-0.005236,0.204204,-0.048869
1608115526696,1608115525901,3.442134,-9.806650,-3.216581,1608115526696,-0.012217,-0.045379,0.050615
1608115526730,1608115525920,-1.451384,-6.894075,-2.481082,1608115526729,-0.015708,0.045379,-0.017453
1608115526763,1608115525944,0.931632,-12.366185,-5.874183,1608115526763,0.003491,-0.020944,0.036652
1608115526796,1608115525972,3.304841,-9.247671,-3.579427,1608115526796,0.027925,0.090757,-0.012217
1608115526830,1608115525995,-0.147100,-8.482752,-0.431493,1608115526830,0.038397,-0.036652,0.031416
1608115526863,1608115526023,-1.392544,-11.375713,-5.815343,1608115526863,-0.019199,0.064577,-0.010472
1608115526897,1608115526047,-2.814508,-9.365351,0.706079,1608115526897,-0.031416,0.005236,0.019199
1608115526930,1608115526062,0.892405,-9.532063,-0.470719,1608115526930,0.017453,0.038397,-0.005236
1608115526964,1608115526082,3.804980,-7.864933,0.931632,1608115526963,0.005236,0.102974,-0.024435
1608115526997,1608115526098,6.413549,-9.414384,-5.530951,1608115526997,0.012217,-0.022689,-0.027925
1608115527031,1608115526126,5.374044,-9.090764,1.892683,1608115527030,-0.012217,0.087266,0.013963
1608115527064,1608115526149,-0.608012,-7.923773,0.284393,1608115527064,-0.003491,0.116937,-0.005236
1608115527098,1608115526173,2.598762,-8.345459,1.010085,1608115527097,0.033161,0.045379,-0.029671
1608115527131,1608115526193,2.275143,-5.834957,4.001113,1608115527131,0.008727,0.113446,-0.026180
1608115527165,1608115526216,5.148491,-10.316595,-3.765754,1608115527164,-0.099484,0.001745,-0.040143
1608115527198,1608115526244,-1.735777,-8.649466,-7.423634,1608115527198,0.075049,0.118682,-0.064577
1608115527231,1608115526272,-2.618376,-7.364794,5.285784,1608115527231,0.052360,-0.113446,0.001745
1608115527265,1608115526299,2.079010,-8.502365,-1.873070,1608115527265,0.000000,-0.179769,-0.020944
1608115527298,1608115526327,-4.089373,-8.688692,0.264780,1608115527298,0.005236,-0.062832,-0.092502
1608115527332,1608115526350,3.706914,-9.071151,-1.892683,1608115527331,-0.005236,-0.195477,-0.036652
1608115527365,1608115526374,-2.500696,-7.884546,-3.324454,1608115527365,0.043633,-0.357792,-0.054105
1608115527399,1608115526698,-10.238142,-10.473502,-12.709418,1608115527398,0.019199,-0.329867,-0.052360
1608115527432,1608115526721,-7.864933,-9.326124,-5.168105,1608115527432,0.015708,-0.408407,-0.022689
1608115527466,1608115526745,-0.666852,-9.110377,-8.384686,1608115527465,0.069813,-0.610865,-0.075049
1608115527499,1608115526769,0.490332,-8.306232,1.333704,1608115527498,0.036652,-0.567232,-0.109956
1608115527532,1608115526792,-0.833565,-6.776395,-1.235638,1608115527532,0.029671,-0.459022,-0.137881
1608115527566,1608115526816,-2.579149,-8.845598,-1.235638,1608115527565,0.008727,-0.623083,-0.155334
1608115527599,1608115526844,0.872792,-9.806650,-5.226944,1608115527599,-0.026180,-0.654498,-0.144862
1608115527633,1608115526867,3.824593,-8.806372,-6.070316,1608115527632,0.090757,-0.644027,-0.134390
1608115527666,1608115526891,-9.836070,-8.629851,0.362846,1608115527666,0.052360,-0.614356,-0.258309
1608115527700,1608115526919,-0.549172,-13.268397,0.049033,1608115527699,-0.005236,-0.656244,-0.155334
1608115527733,1608115526942,-9.610517,-6.639102,-5.285784,1608115527733,0.036652,-0.708604,-0.179769
1608115527767,1608115526966,-1.696550,-10.836348,-6.433162,1608115527766,-0.001745,-0.806342,-0.113446
1608115527800,1608115526990,2.039783,-10.012589,0.049033,1608115527800,-0.003491,-0.783653,-0.116937
1608115527856,1608115527013,-0.529559,-7.786480,2.902768,1608115527855,0.026180,-0.642281,-0.158825
1608115527889,1608115527041,-0.362846,-6.256642,4.020726,1608115527889,0.000000,-0.626573,-0.127409
1608115527923,1608115527069,-0.686466,-8.041452,-2.775282,1608115527922,-0.010472,-0.675442,-0.176278
1608115527956,1608115527096,-6.737168,-7.923773,-2.333983,1608115527956,-0.008727,-0.568977,-0.165806
1608115527990,1608115527103,-0.627626,-10.149882,-1.853457,1608115527989,0.012217,-0.757473,-0.125664
1608115528023,1608115527115,-2.177076,-10.434276,-2.059397,1608115528023,0.031416,-0.644027,-0.144862
1608115528056,1608115527135,-8.227779,-10.257755,-4.128600,1608115528056,-0.010472,-0.699877,-0.143117
1608115528090,1608115527159,-2.137850,-9.326124,-0.990472,1608115528090,-0.015708,-0.638790,-0.122173
1608115528123,1608115527163,-1.166991,-8.629851,-5.893796,1608115528090,0.012217,-0.651008,-0.092502
1608115528157,1608115527183,-6.658715,-9.110377,-4.207053,1608115528156,0.052360,-0.706858,-0.115192
1608115528190,1608115527406,-3.216581,-9.267284,-0.990472,1608115528190,0.017453,-0.591667,-0.125664
1608115528224,1608115527438,0.647239,-9.571290,1.510224,1608115528223,-0.041888,-0.733038,-0.162316
1608115528257,1608115527458,-8.247393,-10.630408,-4.167826,1608115528257,-0.027925,-0.675442,-0.144862
1608115528291,1608115527478,-5.207331,-9.512450,-0.549172,1608115528290,0.005236,-0.607375,-0.150098
1608115528324,1608115527498,-2.794895,-8.159133,0.264780,1608115528324,-0.050615,-0.614356,-0.162316
1608115528358,1608115527522,-2.775282,-8.992698,2.883155,1608115528357,0.019199,-0.652753,-0.144862
1608115528391,1608115527546,-4.265893,-9.512450,-1.333704,1608115528391,0.003491,-0.654498,-0.174533
1608115528425,1608115527561,-5.511337,-8.159133,-2.853735,1608115528424,-0.006981,-0.757473,-0.123918
1608115528458,1608115527581,-10.895188,-10.640215,-1.608291,1608115528458,0.015708,-0.760964,-0.139626
1608115528491,1608115527605,-3.785367,-8.727919,-0.382459,1608115528491,-0.026180,-0.499164,-0.183260
1608115528525,1608115527625,-7.256921,-10.355823,-5.432884,1608115528525,-0.012217,-0.673697,-0.169297
1608115528558,1608115527641,0.706079,-7.982613,0.666852,1608115528558,-0.012217,-0.781907,-0.132645
1608115528592,1608115527653,-8.943665,-9.973363,-4.128600,1608115528591,0.019199,-0.710349,-0.146608
1608115528625,1608115527673,5.315204,-9.071151,-2.961608,1608115528625,0.031416,-0.834267,-0.123918
1608115528659,1608115527697,-9.208445,-9.326124,-0.402073,1608115528658,0.008727,-0.797615,-0.198968
1608115528692,1608115527717,-0.147100,-8.443525,-2.255529,1608115528691,-0.012217,-0.710349,-0.132645
1608115528726,1608115527741,-2.618376,-9.708583,-3.785367,1608115528725,-0.024435,-0.733038,-0.176278
1608115528759,1608115527761,4.530672,-10.875574,-0.088260,1608115528759,-0.012217,-0.753982,-0.179769
1608115528792,1608115527777,-6.070316,-8.404299,-1.147378,1608115528792,0.000000,-0.663225,-0.164061
1608115528826,1608115527801,3.422521,-8.865211,-0.127486,1608115528826,0.010472,-0.680678,-0.186750
1608115528859,1608115527821,-9.630130,-8.767145,-2.834122,1608115528859,0.008727,-0.657989,-0.176278
1608115528893,1608115527845,-0.088260,-9.894910,-3.657880,1608115528892,0.010472,-0.743510,-0.174533
1608115528926,1608115527869,-3.942273,-9.649743,-2.235916,1608115528926,0.026180,-0.774926,-0.143117
1608115528960,1608115527889,-3.216581,-9.816457,-4.726805,1608115528959,-0.015708,-0.671952,-0.212930
1608115528993,1608115528207,1.735777,-7.198081,4.824872,1608115528993,-0.027925,-0.593412,-0.232129
1608115529027,1608115528226,-6.560649,-10.208722,-3.657880,1608115529026,-0.012217,-0.743510,-0.144862
1608115529060,1608115528246,-3.765754,-10.532342,-7.296147,1608115529060,0.040143,-0.788889,-0.148353
1608115529093,1608115528270,-2.579149,-10.051816,-6.011477,1608115529093,0.000000,-0.776672,-0.211185
1608115529127,1608115528289,-6.237029,-9.590903,-2.637989,1608115529126,-0.022689,-0.638790,-0.179769
1608115529160,1608115528309,-0.833565,-8.865211,-1.794617,1608115529160,-0.006981,-0.841249,-0.165806
1608115529194,1608115528329,-3.059675,-8.727919,-0.343233,1608115529193,0.013963,-0.919788,-0.148353
1608115529227,1608115528344,-2.079010,-9.875297,-4.403186,1608115529226,0.006981,-0.734784,-0.185005
1608115529260,1608115528364,5.913410,-10.012589,-2.392823,1608115529260,-0.031416,-0.827286,-0.158825
1608115529294,1608115528392,-6.541035,-8.208166,0.470719,1608115529294,-0.047124,-0.738274,-0.169297
1608115529327,1608115528412,-2.883155,-9.208445,-2.637989,1608115529327,-0.033161,-0.584685,-0.225147
1608115529361,1608115528431,-3.000835,-8.963278,-0.608012,1608115529360,-0.022689,-0.640536,-0.218166
1608115529394,1608115528451,-8.502365,-10.473502,-7.139241,1608115529394,0.010472,-0.856957,-0.191986
1608115529428,1608115528467,-2.010363,-8.992698,-1.627904,1608115529427,-0.015708,-0.663225,-0.218166
1608115529461,1608115528486,-2.216303,-9.169217,-4.246279,1608115529461,-0.026180,-0.858702,-0.125664
1608115529494,1608115528506,3.059675,-10.453889,-5.511337,1608115529494,-0.005236,-0.794125,-0.202458
1608115529528,1608115528522,-0.627626,-8.992698,4.991585,1608115529527,0.008727,-0.816814,-0.146608
1608115529561,1608115528542,-8.404299,-9.669356,-7.276534,1608115529561,0.020944,-0.897099,-0.141372
1608115529595,1608115528565,0.813952,-10.914802,-1.892683,1608115529594,-0.026180,-0.692896,-0.172788
1608115529628,1608115528589,-7.443247,-11.258034,-6.894075,1608115529628,-0.024435,-0.794125,-0.188496
1608115529662,1608115528613,-8.825985,-9.129991,-4.187439,1608115529661,0.000000,-0.855211,-0.172788
1608115529695,1608115528636,-5.511337,-8.541592,-4.128600,1608115529695,-0.003491,-0.869174,-0.113446
1608115529729,1608115528656,-3.883433,-9.816457,-3.903047,1608115529728,-0.033161,-0.506145,-0.223402
1608115529762,1608115528680,-1.431771,-10.836348,-5.128878,1608115529761,0.005236,-0.631809,-0.169297
1608115529795,1608115528703,-8.580818,-8.992698,-2.481082,1608115529795,0.019199,-0.839503,-0.146608
1608115529829,1608115529027,3.177355,-9.326124,-4.285506,1608115529828,0.027925,-0.717330,-0.120428
1608115529862,1608115529042,-2.098623,-7.060788,2.794895,1608115529862,0.040143,-0.689405,-0.160570
1608115529896,1608115529062,-4.746418,-9.071151,-1.049312,1608115529895,0.031416,-0.518363,-0.178024
1608115529929,1608115529086,-4.108986,-7.884546,5.727084,1608115529929,0.024435,-0.623083,-0.150098
1608115529963,1608115529117,-10.836348,-10.551955,-2.353596,1608115529962,-0.029671,-0.607375,-0.183260
1608115529996,1608115529141,5.834957,-7.825706,2.539922,1608115529996,0.001745,-0.534071,-0.127409
1608115530030,1608115529161,-1.412158,-8.865211,-0.745305,1608115530029,0.012217,-0.516617,-0.141372
1608115530063,1608115529171,1.833843,-9.188830,-0.323619,1608115530063,0.038397,-0.591667,-0.139626
1608115530096,1608115529191,-2.255529,-8.463139,-1.108151,1608115530096,-0.005236,-0.691150,-0.141372
1608115530130,1608115529215,-6.452775,-8.943665,-1.255251,1608115530130,-0.022689,-0.685914,-0.190241
1608115530163,1608115529235,6.776395,-9.090764,-1.068925,1608115530163,-0.013963,-0.729548,-0.071558
1608115530197,1608115529267,-12.503478,-9.169217,-2.579149,1608115530196,-0.019199,-0.500910,-0.198968
1608115530230,1608115529291,3.255808,-8.521978,1.912297,1608115530230,-0.029671,-0.570723,-0.122173
1608115530264,1608115529315,-1.470997,-9.051538,-0.029420,1608115530263,0.050615,-0.432842,-0.179769
1608115530297,1608115529339,-3.863820,-10.757895,-0.588399,1608115530297,-0.012217,-0.617847,-0.085521
1608115530331,1608115529358,3.442134,-9.934136,-1.412158,1608115530330,-0.017453,-0.495674,-0.181514
1608115530364,1608115529378,-1.235638,-11.218807,-2.814508,1608115530364,-0.003491,-0.593412,-0.129154
1608115530397,1608115529402,-13.268397,-12.081793,-7.806093,1608115530397,-0.008727,-0.631809,-0.134390
1608115530431,1608115529426,0.343233,-9.512450,-14.455002,1608115530431,-0.022689,-0.582940,-0.083776
1608115530464,1608115529446,-3.324454,-7.864933,-10.238142,1608115530464,-0.064577,-0.598648,-0.132645
1608115530498,1608115529474,0.872792,-7.845320,-2.481082,1608115530498,-0.047124,-0.680678,-0.010472
1608115530531,1608115529494,-10.071429,-10.914802,-2.883155,1608115530531,0.040143,-0.570723,-0.146608
1608115530598,1608115529845,-13.915636,-12.258312,-11.140354,1608115530598,-0.040143,-0.354302,-0.111701
1608115530632,1608115529860,5.550564,-6.678329,4.932745,1608115530631,0.036652,-0.486947,-0.062832
1608115530665,1608115529876,-1.206218,-7.041174,6.315483,1608115530665,0.001745,-0.497419,-0.041888
1608115530699,1608115529896,-3.863820,-9.551677,-3.481361,1608115530698,-0.071558,-0.415388,-0.080285
1608115530732,1608115529920,-3.402907,-10.493115,8.629851,1608115530732,-0.020944,-0.623083,-0.033161
1608115530765,1608115529948,5.109264,-8.541592,-3.098901,1608115530765,0.003491,-0.326377,-0.094248
1608115530799,1608115529976,-8.943665,-10.375436,1.490611,1608115530799,-0.019199,-0.549779,-0.034907
1608115530832,1608115529992,-0.323619,-12.199472,2.294756,1608115530832,0.024435,-0.610865,-0.064577
1608115530866,1608115530012,-7.364794,-10.169496,4.305119,1608115530865,-0.026180,-0.563741,-0.099484
1608115530899,1608115530032,6.952915,-9.571290,-0.666852,1608115530899,-0.008727,-0.242601,-0.061087
1608115530933,1608115530052,-5.530951,-11.179581,-9.090764,1608115530932,0.012217,-0.314159,-0.146608
1608115530966,1608115530072,-6.452775,-9.590903,-3.363681,1608115530966,-0.022689,-0.176278,-0.120428
1608115531000,1608115530088,2.177076,-11.140354,-3.324454,1608115530999,0.006981,-0.438078,-0.075049
1608115531033,1608115530108,-12.326959,-14.396162,-10.512729,1608115531032,0.020944,-0.317650,-0.104720
1608115531066,1608115530127,4.952358,-9.669356,3.304841,1608115531066,0.000000,-0.537561,-0.080285
1608115531100,1608115530147,-1.166991,-7.658993,9.473224,1608115531100,-0.012217,-0.493928,-0.108210
1608115531133,1608115530167,-1.088538,-13.327237,-9.031924,1608115531133,-0.008727,-0.671952,-0.031416
1608115531167,1608115530191,-17.828489,-8.159133,6.354709,1608115531166,0.038397,-0.445059,-0.071558
1608115531200,1608115530207,-2.902768,-12.729032,-3.079288,1608115531199,0.071558,-0.363028,-0.062832
1608115531234,1608115530231,-11.601267,-9.953750,-9.110377,1608115531233,0.085521,-0.509636,-0.069813
1608115531267,1608115530254,6.472389,-10.718668,-5.393657,1608115531266,0.113446,-0.490438,-0.137881
1608115531300,1608115530278,-2.412436,-9.247671,-0.088260,1608115531300,0.050615,-0.453786,-0.125664
1608115531334,1608115530306,-3.236194,-7.619767,1.735777,1608115531333,-0.036652,-0.406662,-0.075049
1608115531367,1608115530600,-5.776117,-7.296147,6.658715,1608115531367,0.005236,-0.492183,-0.076794
1608115531401,1608115530620,0.853179,-6.619489,-1.255251,1608115531400,0.041888,-0.265290,-0.047124
1608115531434,1608115530644,-0.833565,-8.188553,4.128600,1608115531434,0.019199,-0.408407,-0.136136
1608115531468,1608115530671,3.765754,-9.012311,-0.431493,1608115531467,-0.064577,-0.445059,-0.085521
1608115531501,1608115530695,1.755390,-11.964112,-5.472111,1608115531501,-0.064577,-0.397935,-0.137881
1608115531534,1608115530723,-1.794617,-11.101128,-4.383573,1608115531534,-0.040143,-0.642281,0.034907
1608115531568,1608115530747,-10.091043,-8.384686,0.813952,1608115531568,-0.068068,-0.315905,-0.115192
1608115531601,1608115530771,-0.245166,-11.542427,1.814230,1608115531601,-0.123918,-0.541052,-0.115192
1608115531635,1608115530794,-4.805258,-10.934415,-0.166713,1608115531635,-0.174533,-0.492183,-0.059341
1608115531668,1608115530802,-3.157741,-9.149604,1.392544,1608115531667,-0.153589,-0.525344,-0.050615
1608115531702,1608115530826,7.757060,-6.982335,3.579427,1608115531701,-0.082030,-0.380482,-0.094248
1608115531735,1608115530846,-14.572681,-7.580540,-11.395327,1608115531735,-0.062832,-0.242601,-0.106465
1608115531769,1608115530866,9.816457,-4.059953,3.579427,1608115531768,-0.020944,-0.659734,0.024435
1608115531802,1608115530890,-7.825706,-16.661497,-12.827098,1608115531802,0.022689,-0.488692,-0.061087
1608115531836,1608115530914,-20.162472,-14.670748,-10.395049,1608115531835,0.020944,-0.279253,-0.113446
1608115531869,1608115530941,-2.981221,-11.454167,4.952358,1608115531869,0.013963,-0.130900,-0.101229
1608115531902,1608115530965,-8.443525,-12.464252,-3.903047,1608115531902,0.027925,-0.099484,-0.122173
1608115531936,1608115530985,2.235916,-7.560927,-7.982613,1608115531936,0.066323,-0.511381,-0.015708
1608115532003,1608115531029,-2.539922,-12.483865,-5.187718,1608115532002,-0.010472,-0.312414,-0.094248
1608115532036,1608115531056,-2.981221,-5.070038,-3.059675,1608115532036,-0.005236,-0.328122,-0.085521
1608115532069,1608115531084,-8.924051,-6.089930,5.413270,1608115532069,-0.001745,-0.214676,-0.094248
1608115532103,1608115531407,-10.238142,-8.669079,-0.529559,1608115532103,-0.003491,-0.171042,-0.176278
1608115532136,1608115531435,-6.678329,-5.668243,0.166713,1608115532136,-0.010472,-0.364774,-0.123918
1608115532170,1608115531466,6.031090,-10.228335,-9.992976,1608115532169,-0.057596,-0.408407,-0.043633
1608115532203,1608115531494,9.992976,-9.492837,-4.403186,1608115532203,0.003491,-0.361283,-0.116937
1608115532237,1608115531521,-1.510224,-12.846711,-4.128600,1608115532236,0.029671,-0.342085,-0.095993
1608115532270,1608115531549,-5.972250,-11.218807,-4.187439,1608115532270,0.005236,-0.211185,-0.172788
1608115532304,1608115531572,-10.512729,-9.728196,-7.560927,1608115532303,0.012217,-0.296706,-0.055851
1608115532337,1608115531600,-4.707192,-11.140354,2.559536,1608115532337,-0.008727,-0.343830,-0.094248
1608115532370,1608115531628,-16.220200,-15.131660,-6.560649,1608115532370,0.040143,-0.240855,-0.146608
1608115532404,1608115531655,-2.657602,-7.806093,2.392823,1608115532404,0.043633,-0.315905,-0.094248
1608115532437,1608115531675,0.225553,-4.040339,3.883433,1608115532437,-0.029671,-0.481711,-0.043633
1608115532471,1608115531702,8.825985,-7.786480,-3.255808,1608115532470,-0.005236,-0.274017,-0.050615
1608115532504,1608115531718,2.863542,-14.455002,-4.991585,1608115532504,-0.003491,-0.282743,-0.017453
1608115532538,1608115531746,-2.736055,-8.267006,1.225831,1608115532537,-0.019199,-0.349066,-0.064577
1608115532571,1608115531769,-11.238420,-11.620880,0.000000,1608115532571,-0.008727,-0.359538,-0.062832
1608115532605,1608115531797,-10.777508,-10.532342,0.509946,1608115532604,-0.073304,-0.225147,-0.080285
1608115532638,1608115531820,-10.453889,-10.375436,-1.333704,1608115532637,-0.057596,-0.417134,-0.075049
1608115532671,1608115531836,-6.511615,-9.992976,-11.238420,1608115532671,0.015708,-0.048869,-0.062832
1608115532705,1608115531860,5.648630,-13.209558,-11.620880,1608115532705,-0.036652,-0.195477,-0.005236
1608115532738,1608115531880,-0.970858,-9.365351,-0.990472,1608115532738,-0.005236,-0.466003,-0.029671
1608115532772,1608115532128,7.462861,-8.845598,-2.559536,1608115532771,0.012217,-0.251327,-0.068068
1608115532805,1608115532151,-5.707470,-11.061901,-3.677494,1608115532804,-0.001745,-0.326377,-0.017453
1608115532863,1608115532171,-4.344346,-8.521978,-1.333704,1608115532863,-0.005236,-0.151844,-0.136136
1608115532897,1608115532187,0.402073,-8.924051,-5.933023,1608115532896,-0.006981,-0.439823,-0.069813
1608115532930,1608115532206,-4.805258,-8.443525,-2.118236,1608115532930,-0.015708,-0.331613,-0.109956
1608115532964,1608115532230,-7.139241,-9.110377,-3.785367,1608115532963,-0.022689,-0.125664,-0.116937
1608115532997,1608115532254,-13.189944,-13.954863,-1.657324,1608115532997,0.013963,-0.055851,-0.113446
1608115533030,1608115532273,7.060788,-10.032203,-2.716442,1608115533030,0.059341,-0.219911,-0.029671
1608115533064,1608115532297,-13.709697,-11.081514,-5.972250,1608115533063,-0.006981,-0.253073,-0.115192
1608115533097,1608115532316,10.130269,-8.924051,7.923773,1608115533097,-0.068068,-0.263545,-0.087266
1608115533131,1608115532340,-3.687300,-8.963278,-6.197803,1608115533131,-0.040143,-0.439823,-0.099484
1608115533164,1608115532364,-19.917305,-9.071151,-9.630130,1608115533164,0.062832,-0.542797,-0.043633
1608115533198,1608115532387,5.854570,-7.825706,-0.647239,1608115533197,0.052360,-0.279253,-0.104720
1608115533231,1608115532415,-10.512729,-10.091043,-2.333983,1608115533231,0.005236,-0.106465,-0.050615
1608115533265,1608115532438,-7.041174,-11.238420,0.000000,1608115533264,-0.085521,-0.417134,-0.017453
1608115533298,1608115532466,-10.591182,-11.199194,-1.049312,1608115533297,-0.013963,-0.352556,-0.045379
1608115533331,1608115532485,-3.746140,-11.503201,-6.413549,1608115533331,-0.010472,-0.441568,-0.134390
1608115533365,1608115532513,-12.405412,-7.521700,-2.157463,1608115533364,-0.012217,-0.212930,-0.038397
1608115533398,1608115532544,-2.451663,-5.374044,-2.079010,1608115533398,-0.003491,-0.254818,-0.064577
1608115533432,1608115532564,-0.107873,-11.395327,-2.118236,1608115533432,0.054105,-0.068068,-0.092502
1608115533465,1608115532587,-4.265893,-7.021561,3.726527,1608115533465,-0.012217,-0.403171,0.020944
1608115533499,1608115532615,4.422799,-10.895188,0.147100,1608115533498,-0.062832,-0.268781,-0.020944
1608115533532,1608115532799,3.079288,-7.963000,6.295869,1608115533532,-0.102974,-0.162316,0.054105
1608115533566,1608115532827,6.619489,-7.443247,4.667965,1608115533565,0.010472,-0.165806,-0.038397
1608115533599,1608115532847,-3.304841,-10.954028,-2.216303,1608115533599,0.047124,-0.090757,-0.017453
1608115533632,1608115532874,-16.004452,-10.012589,-1.931910,1608115533632,-0.073304,-0.198968,-0.015708
1608115533666,1608115532890,-5.570177,-7.404021,-8.825985,1608115533666,-0.115192,-0.146608,-0.036652
1608115533699,1608115532917,1.676937,-10.012589,6.492002,1608115533699,0.012217,-0.188496,0.038397
1608115533733,1608115532937,-5.207331,-10.493115,3.785367,1608115533732,0.012217,-0.066323,0.010472
1608115533766,1608115532956,-6.835235,-13.189944,3.118515,1608115533766,0.038397,-0.155334,0.005236
1608115533800,1608115532980,2.079010,-4.265893,8.590625,1608115533799,-0.083776,-0.260054,0.050615
1608115533833,1608115533003,-2.029977,-10.296982,-9.228058,1608115533833,-0.005236,-0.003491,-0.033161
1608115533867,1608115533031,-5.511337,-9.787037,-12.179859,1608115533866,-0.172788,-0.111701,0.019199
1608115533900,1608115533058,6.129156,-7.276534,3.785367,1608115533900,-0.040143,-0.113446,0.073304
1608115533933,1608115533082,2.755669,-6.374322,-1.294478,1608115533933,0.064577,-0.078540,0.010472
1608115533967,1608115533109,-5.972250,-9.149604,2.177076,1608115533966,0.012217,0.055851,-0.094248
1608115534000,1608115533129,-1.608291,-8.178746,7.080401,1608115534000,-0.083776,-0.090757,0.015708
1608115534034,1608115533153,-2.981221,-11.336487,-1.716164,1608115534033,-0.162316,0.038397,0.017453
1608115534067,1608115533180,5.668243,-5.629017,0.784532,1608115534067,0.029671,-0.036652,0.036652
1608115534101,1608115533208,0.686466,-8.139520,2.177076,1608115534100,-0.123918,-0.080285,-0.027925
1608115534134,1608115533231,5.187718,-7.904160,3.265614,1608115534134,-0.043633,-0.013963,-0.003491
1608115534167,1608115533255,0.666852,-11.503201,4.148213,1608115534167,0.017453,-0.075049,-0.052360
1608115534201,1608115533275,1.029698,-10.453889,1.392544,1608115534201,0.082030,-0.075049,0.000000
1608115534234,1608115533550,-0.284393,-8.767145,4.324733,1608115534234,0.019199,-0.022689,-0.059341
1608115534268,1608115533570,-3.138128,-10.895188,-3.863820,1608115534267,-0.008727,-0.171042,-0.040143
1608115534334,1608115533625,15.278760,-9.267284,3.981500,1608115534334,0.024435,0.048869,-0.006981
1608115534368,1608115533648,8.541592,-2.618376,8.178746,1608115534368,0.061087,-0.253073,-0.024435
1608115534401,1608115533668,-7.678607,-7.717834,2.098623,1608115534401,0.000000,0.118682,-0.033161
1608115534435,1608115533688,-2.834122,-10.091043,-8.119906,1608115534434,-0.006981,-0.106465,-0.052360
1608115534468,1608115533711,6.011477,-10.130269,1.637710,1608115534468,0.017453,-0.073304,-0.015708
1608115534502,1608115533727,11.179581,-9.306511,3.442134,1608115534501,0.003491,-0.026180,-0.029671
1608115534535,1608115533747,-10.532342,-10.757895,-4.422799,1608115534535,0.069813,0.040143,0.000000
1608115534568,1608115533762,-4.530672,-12.042566,-6.256642,1608115534568,0.101229,-0.150098,-0.019199
1608115534602,1608115533786,-3.540200,-8.767145,2.412436,1608115534602,0.082030,-0.043633,-0.136136
1608115534635,1608115533813,3.236194,-8.061066,0.362846,1608115534635,0.006981,-0.001745,-0.132645
1608115534669,1608115533837,-1.833843,-11.699333,-4.148213,1608115534668,0.001745,-0.075049,-0.139626
1608115534702,1608115533865,-4.864098,-10.414662,1.775004,1608115534702,0.045379,-0.043633,-0.087266
1608115534736,1608115533888,-6.639102,-11.817013,2.333983,1608115534735,0.040143,-0.205949,-0.057596
1608115534769,1608115533912,5.550564,-9.453610,0.107873,1608115534769,0.013963,-0.055851,-0.118682
1608115534802,1608115533935,-3.118515,-8.727919,1.637710,1608115534802,0.066323,-0.071558,-0.132645
1608115534836,1608115533955,5.432884,-5.854570,2.902768,1608115534835,0.125664,-0.237365,-0.040143
1608115534869,1608115533971,-9.453610,-9.590903,-3.903047,1608115534869,0.071558,-0.001745,-0.080285
1608115534903,1608115533982,2.039783,-9.188830,-2.775282,1608115534902,0.038397,-0.204204,-0.073304
1608115534936,1608115534006,-0.490332,-9.973363,-1.588677,1608115534936,0.006981,-0.047124,-0.054105
1608115534970,1608115534026,-10.208722,-9.551677,-1.912297,1608115534969,0.033161,0.071558,-0.038397
1608115535003,1608115534041,0.509946,-12.268119,-2.294756,1608115535003,-0.003491,0.043633,-0.008727
1608115535036,1608115534260,16.681110,-11.140354,-1.873070,1608115535036,0.045379,-0.026180,-0.068068
1608115535070,1608115534280,-2.696829,-11.032481,-3.981500,1608115535069,0.013963,-0.246091,-0.085521
1608115535103,1608115534300,-8.423912,-9.031924,5.736890,1608115535103,-0.015708,0.045379,0.034907
1608115535137,1608115534319,-11.356100,-9.031924,-5.266171,1608115535136,0.026180,-0.307178,-0.071558
1608115535170,1608115534339,8.463139,-10.189109,-3.883433,1608115535170,0.120428,-0.178024,0.054105
1608115535204,1608115534363,-4.971972,-8.267006,-4.040339,1608115535203,0.134390,-0.095993,-0.020944
1608115535237,1608115534386,4.265893,-13.572403,-12.523091,1608115535237,0.019199,-0.062832,-0.055851
1608115535270,1608115534414,4.246279,-9.433997,5.815343,1608115535270,0.036652,-0.097738,0.034907
1608115535304,1608115534449,4.883712,-11.885659,9.071151,1608115535304,0.015708,-0.036652,0.031416
1608115535337,1608115534477,-0.068647,-14.033316,-7.139241,1608115535337,0.102974,-0.172788,-0.127409
1608115535371,1608115534512,-9.473224,-12.581932,-4.707192,1608115535370,-0.034907,-0.298451,0.075049
1608115535404,1608115534544,-2.539922,-6.697942,-5.687857,1608115535404,0.034907,-0.125664,0.017453
1608115535438,1608115534575,-4.589512,-12.425025,-10.718668,1608115535438,0.031416,0.097738,-0.034907
1608115535472,1608115534607,-8.061066,-5.776117,-6.335096,1608115535471,-0.012217,-0.019199,0.038397
1608115535505,1608115534630,4.746418,-17.789263,-15.700446,1608115535505,-0.048869,0.059341,-0.006981
1608115535539,1608115534650,0.666852,-15.298373,-9.630130,1608115535538,-0.031416,-0.247837,0.094248
1608115535572,1608115534678,8.002226,-9.129991,1.735777,1608115535572,-0.010472,0.019199,-0.012217
1608115535605,1608115534705,-4.824872,-12.660385,-8.002226,1608115535605,-0.020944,-0.031416,0.024435
1608115535639,1608115534725,-3.687300,-8.767145,-1.676937,1608115535638,-0.019199,0.190241,-0.085521
1608115535672,1608115535048,-6.492002,-9.836070,-1.412158,1608115535672,-0.055851,0.099484,0.006981
1608115535706,1608115535075,-0.931632,-6.952915,3.402907,1608115535705,0.000000,-0.183260,-0.020944
1608115535739,1608115535095,4.285506,-10.071429,-3.804980,1608115535738,0.036652,0.020944,-0.020944
1608115535806,1608115535134,-3.785367,-10.855961,-1.971137,1608115535806,-0.006981,0.001745,-0.097738
1608115535839,1608115535158,-1.108151,-9.836070,-6.658715,1608115535839,-0.003491,-0.174533,0.027925
1608115535873,1608115535182,-5.933023,-9.473224,-4.089373,1608115535872,0.038397,-0.239110,-0.050615
1608115535906,1608115535205,-6.541035,-7.864933,-5.148491,1608115535906,0.001745,0.024435,-0.027925
1608115535939,1608115535225,-1.451384,-6.913688,-2.755669,1608115535939,0.031416,-0.089012,-0.099484
1608115535973,1608115535249,-2.275143,-2.157463,14.150995,1608115535973,0.080285,-0.172788,0.024435
1608115536006,1608115535272,-4.059953,-9.512450,3.000835,1608115536006,0.012217,-0.181514,0.059341
1608115536040,1608115535284,-3.618654,-6.158576,10.051816,1608115536040,-0.031416,-0.069813,-0.001745
1608115536073,1608115535304,18.073656,-11.120741,0.588399,1608115536073,-0.047124,0.008727,-0.068068
1608115536107,1608115535323,-6.511615,-15.141467,-13.082070,1608115536106,-0.066323,0.102974,-0.109956
1608115536140,1608115535343,-2.883155,-9.473224,-2.863542,1608115536140,-0.010472,0.069813,-0.094248
1608115536173,1608115535359,-4.305119,-10.718668,-9.169217,1608115536173,-0.041888,-0.171042,-0.001745
1608115536207,1608115535378,-3.157741,-6.756782,6.599875,1608115536206,0.013963,0.026180,0.029671
1608115536240,1608115535394,-6.089930,-9.345737,-9.875297,1608115536240,0.048869,-0.174533,-0.043633
1608115536274,1608115535406,-7.639380,-11.866046,-8.404299,1608115536273,0.031416,0.024435,-0.127409
1608115536307,1608115535433,-10.238142,-9.090764,-2.814508,1608115536307,-0.012217,0.043633,0.052360
1608115536340,1608115535453,1.833843,-8.384686,1.657324,1608115536340,0.047124,-0.026180,-0.048869
1608115536374,1608115535473,-2.451663,-7.884546,1.029698,1608115536373,0.052360,0.031416,0.017453
1608115536407,1608115535488,-7.658993,-5.648630,4.766032,1608115536407,0.006981,-0.090757,0.006981
1608115536441,1608115535512,6.354709,-7.482474,1.588677,1608115536440,-0.033161,-0.308923,-0.001745
1608115536474,1608115535528,-5.736890,-8.590625,-11.562040,1608115536474,0.015708,-0.136136,0.095993
1608115536508,1608115535685,1.068925,-9.365351,-2.098623,1608115536507,0.013963,-0.029671,0.050615
1608115536541,1608115535697,4.383573,-7.717834,3.599041,1608115536540,0.024435,0.047124,-0.020944
1608115536574,1608115535712,26.654474,-6.580262,1.529837,1608115536574,-0.012217,0.111701,-0.034907
1608115536608,1608115535732,9.571290,-5.050425,6.315483,1608115536607,-0.020944,-0.130900,0.020944
1608115536641,1608115535744,7.923773,-7.001948,-3.746140,1608115536641,-0.040143,0.197222,-0.106465
1608115536675,1608115535767,-7.384407,-5.776117,-0.049033,1608115536674,0.013963,0.015708,0.047124
1608115536708,1608115535795,4.805258,-10.414662,3.559814,1608115536708,0.027925,0.022689,-0.054105
1608115536741,1608115535822,7.021561,-11.316874,-1.529837,1608115536741,0.024435,-0.038397,0.034907
1608115536775,1608115535850,1.696550,-8.423912,-5.128878,1608115536775,-0.026180,-0.064577,-0.015708
1608115536808,1608115535881,0.284393,-7.766867,-2.853735,1608115536808,0.005236,0.015708,0.034907
1608115536842,1608115535917,-3.746140,-7.021561,-2.235916,1608115536841,-0.027925,-0.043633,0.000000
1608115536875,1608115535940,8.924051,-9.806650,-1.637710,1608115536875,0.038397,-0.006981,-0.003491
1608115536909,1608115535964,-4.305119,-11.277647,-2.637989,1608115536908,0.040143,-0.069813,0.104720
1608115536942,1608115535987,-2.834122,-10.493115,-2.657602,1608115536941,-0.097738,0.092502,-0.010472
1608115536975,1608115536007,9.110377,-8.561205,-0.382459,1608115536975,-0.059341,0.223402,0.019199
1608115537042,1608115536046,1.892683,-9.345737,-2.941995,1608115537042,0.034907,0.069813,-0.026180
1608115537076,1608115536066,2.657602,-8.924051,-4.108986,1608115537075,-0.005236,0.069813,0.092502
1608115537109,1608115536086,8.482752,-9.571290,-0.970858,1608115537109,0.036652,0.198968,0.036652
1608115537143,1608115536109,4.442412,-10.355823,-5.148491,1608115537142,0.006981,0.101229,0.015708
1608115537176,1608115536125,2.814508,-8.080679,-2.196690,1608115537176,0.017453,-0.022689,0.036652
1608115537209,1608115536149,10.316595,-5.834957,-3.687300,1608115537209,0.008727,0.034907,0.001745
1608115537243,1608115536164,5.472111,-6.089930,-1.451384,1608115537243,-0.027925,0.085521,0.043633
1608115537276,1608115536514,1.627904,-7.423634,-1.274864,1608115537276,-0.022689,0.258309,0.000000
1608115537310,1608115536538,0.049033,-8.267006,-4.108986,1608115537309,0.019199,0.108210,0.083776
1608115537343,1608115536550,0.764919,-9.473224,-1.392544,1608115537343,0.017453,0.132645,0.057596
1608115537377,1608115536569,0.490332,-9.512450,-3.804980,1608115537376,0.017453,0.198968,0.034907
1608115537410,1608115536589,-3.599041,-10.777508,-8.021839,1608115537410,-0.001745,0.104720,0.000000
1608115537444,1608115536605,7.963000,-9.669356,2.353596,1608115537443,-0.040143,0.242601,0.048869
1608115537477,1608115536624,-5.148491,-8.541592,-3.863820,1608115537477,-0.010472,0.291470,0.031416
1608115537511,1608115536648,4.550285,-9.973363,-6.197803,1608115537510,-0.010472,0.333358,0.038397
1608115537544,1608115536672,13.189944,-9.433997,-1.412158,1608115537544,-0.055851,0.235619,0.026180
1608115537578,1608115536691,-2.657602,-10.355823,-7.364794,1608115537577,-0.043633,0.247837,0.000000
1608115537611,1608115536711,10.640215,-12.562319,-12.326959,1608115537611,-0.020944,0.164061,0.069813
1608115537645,1608115536731,-0.186326,-7.717834,-3.961886,1608115537644,0.026180,0.301942,0.000000
1608115537678,1608115536746,8.924051,-12.307345,-5.354431,1608115537677,0.005236,0.214676,0.006981
1608115537712,1608115536758,-7.678607,-11.336487,-6.541035,1608115537711,-0.001745,0.066323,0.111701
1608115537745,1608115536770,-1.657324,-6.835235,-1.166991,1608115537744,0.001745,0.148353,0.080285
1608115537778,1608115536786,0.205940,-6.933301,1.412158,1608115537778,-0.015708,0.408407,0.017453
1608115537812,1608115536794,2.794895,-6.639102,0.686466,1608115537809,0.012217,0.315905,0.031416
1608115537846,1608115536801,0.127486,-9.836070,-6.982335,1608115537845,-0.003491,0.298451,0.001745
1608115537879,1608115536813,-9.688970,-9.345737,-8.610238,1608115537879,-0.005236,0.336849,0.036652
1608115537912,1608115536821,7.256921,-9.149604,-3.461747,1608115537912,0.019199,0.226893,0.062832
1608115537946,1608115536833,6.658715,-8.267006,-1.372931,1608115537945,0.020944,0.232129,0.020944
1608115537979,1608115536849,1.990750,-9.384964,-2.579149,1608115537979,0.006981,0.410152,-0.024435
1608115538013,1608115536856,-2.657602,-10.679441,-5.246558,1608115538010,-0.005236,0.064577,0.054105
1608115538046,1608115536877,0.627626,-10.777508,-2.902768,1608115538046,-0.026180,0.411898,0.061087
1608115538080,1608115536893,-2.029977,-10.375436,-5.393657,1608115538079,0.045379,0.129154,0.116937
1608115538113,1608115536913,-4.864098,-11.542427,-7.600153,1608115538113,0.003491,0.270526,0.083776
1608115538147,1608115536929,-1.147378,-7.600153,0.509946,1608115538146,-0.017453,0.205949,0.076794
1608115538180,1608115536956,-4.932745,-8.963278,-6.433162,1608115538180,0.078540,0.466003,-0.022689
1608115538213,1608115536980,2.981221,-10.855961,-4.991585,1608115538213,-0.013963,0.324631,0.041888
1608115538247,1608115537007,2.775282,-9.688970,-0.549172,1608115538247,-0.055851,0.291470,0.047124
1608115538280,1608115537291,6.756782,-10.336209,0.411879,1608115538280,-0.083776,0.085521,0.069813
1608115538314,1608115537319,-1.470997,-8.404299,-0.608012,1608115538313,-0.059341,0.232129,0.020944
1608115538347,1608115537338,-6.158576,-8.502365,-4.550285,1608115538347,0.054105,0.263545,-0.075049
1608115538381,1608115537362,9.149604,-9.051538,-1.892683,1608115538380,0.003491,0.343830,-0.017453
1608115538414,1608115537382,-14.935528,-9.365351,-3.883433,1608115538414,0.000000,0.371755,-0.031416
1608115538447,1608115537409,-13.748923,-5.452497,-2.775282,1608115538447,0.061087,0.087266,0.010472
1608115538481,1608115537437,5.589790,-8.825985,-4.001113,1608115538480,0.043633,0.108210,0.010472
1608115538514,1608115537460,1.274864,-5.668243,0.725692,1608115538514,0.027925,0.158825,-0.041888
1608115538548,1608115537484,1.627904,-16.965504,-9.836070,1608115538547,0.064577,-0.116937,-0.006981
1608115538581,1608115537512,-14.837461,-12.121019,-8.649466,1608115538581,0.027925,0.000000,0.057596
1608115538615,1608115537539,-11.042288,-9.433997,-4.766032,1608115538614,-0.034907,0.036652,-0.008727
1608115538682,1608115537559,13.994089,-10.336209,0.804145,1608115538648,-0.036652,0.012217,0.052360
1608115538719,1608115537575,2.775282,-6.472389,0.009807,1608115538719,-0.017453,-0.043633,0.087266
1608115538753,1608115537598,-0.382459,-5.354431,-2.432049,1608115538752,0.033161,0.029671,-0.017453
1608115538786,1608115537630,5.511337,-8.345459,-4.442412,1608115538786,-0.012217,0.169297,0.061087
1608115538820,1608115537649,-4.285506,-8.208166,-5.432884,1608115538819,0.029671,0.069813,0.000000
1608115538853,1608115537665,0.147100,-10.551955,5.952636,1608115538853,-0.047124,0.137881,0.034907
1608115538887,1608115537689,8.178746,-9.787037,2.029977,1608115538886,-0.057596,0.123918,0.012217
1608115538920,1608115537705,7.717834,-7.757060,-1.274864,1608115538920,0.024435,0.195477,0.000000
1608115538954,1608115537720,-2.451663,-11.758173,-3.422521,1608115538953,-0.027925,-0.209440,0.078540
1608115538987,1608115537732,1.147378,-5.393657,6.933301,1608115538986,0.008727,-0.020944,0.071558
1608115539021,1608115537756,6.089930,-6.129156,0.088260,1608115539020,-0.071558,0.097738,0.005236
1608115539054,1608115537775,-0.588399,-8.002226,-3.942273,1608115539054,-0.015708,0.102974,0.013963
1608115539088,1608115538287,0.068647,-10.395049,-5.305398,1608115539087,0.005236,0.102974,0.048869
1608115539121,1608115538310,-1.431771,-9.669356,-5.491724,1608115539121,-0.020944,0.080285,0.024435
1608115539155,1608115538334,3.216581,-11.522814,0.784532,1608115539154,-0.054105,-0.064577,0.033161
1608115539188,1608115538338,-4.971972,-8.443525,-0.912018,1608115539154,-0.017453,0.090757,0.015708
1608115539222,1608115538362,6.178189,-11.375713,-4.363959,1608115539221,-0.006981,0.075049,-0.059341
1608115539255,1608115538377,0.362846,-7.482474,-0.284393,1608115539255,-0.026180,-0.062832,0.003491
1608115539289,1608115538393,2.432049,-8.590625,-2.461469,1608115539288,0.015708,-0.057596,0.036652
1608115539322,1608115538409,4.207053,-7.786480,-1.931910,1608115539322,0.019199,0.008727,-0.027925
1608115539356,1608115538421,0.402073,-8.159133,-0.764919,1608115539355,0.010472,-0.043633,-0.017453
1608115539389,1608115538436,1.127765,-9.012311,-1.372931,1608115539388,-0.029671,0.113446,0.001745
1608115539423,1608115538448,1.353318,-9.433997,-1.794617,1608115539422,-0.026180,0.029671,0.064577
1608115539457,1608115538464,-1.608291,-9.816457,-5.589790,1608115539456,-0.034907,0.190241,0.052360
1608115539490,1608115538480,-0.529559,-12.346572,-11.983726,1608115539490,-0.055851,0.122173,0.054105
1608115539524,1608115538484,0.304006,-7.825706,1.931910,1608115539491,-0.068068,0.123918,0.048869
1608115539569,1608115538500,6.197803,-11.758173,-8.443525,1608115539568,-0.064577,0.099484,0.073304
1608115539602,1608115538515,-3.285228,-13.307624,-3.559814,1608115539602,0.001745,0.144862,0.045379
1608115539636,1608115538531,4.187439,-7.139241,4.226666,1608115539635,-0.010472,0.027925,0.054105
1608115539669,1608115538551,5.648630,-7.198081,-2.010363,1608115539669,-0.040143,0.085521,0.013963
1608115539702,1608115538570,-1.147378,-7.502087,-2.412436,1608115539702,-0.059341,0.089012,0.005236
1608115539736,1608115538590,5.991863,-7.658993,1.892683,1608115539735,-0.020944,0.160570,0.057596
1608115539769,1608115538610,3.098901,-8.747532,-3.118515,1608115539769,0.013963,0.087266,0.029671
1608115539803,1608115538633,-5.550564,-7.737447,-1.912297,1608115539802,0.029671,-0.022689,0.017453
1608115539836,1608115538657,4.207053,-10.453889,-2.902768,1608115539836,0.000000,0.083776,0.008727
1608115539869,1608115538677,0.745305,-9.169217,-0.009807,1608115539869,-0.026180,0.076794,0.029671
1608115539903,1608115538704,4.324733,-9.855683,0.245166,1608115539903,0.034907,0.038397,0.006981
1608115539936,1608115538732,-0.343233,-7.021561,0.411879,1608115539936,0.029671,0.001745,0.012217
1608115539970,1608115538755,1.225831,-8.325846,-3.216581,1608115539969,0.022689,0.148353,0.026180
1608115540003,1608115538783,-5.668243,-7.100014,-4.207053,1608115540003,0.013963,0.263545,0.013963
1608115540037,1608115539106,1.657324,-8.649466,-3.961886,1608115540036,0.001745,0.137881,-0.045379
1608115540070,1608115539122,-4.785645,-8.247393,-4.363959,1608115540070,0.013963,0.059341,-0.059341
1608115540103,1608115539145,-2.059397,-7.806093,-2.235916,1608115540103,-0.005236,0.087266,-0.010472
1608115540137,1608115539165,-2.177076,-10.954028,0.284393,1608115540136,0.068068,0.043633,0.036652
1608115540170,1608115539185,-7.982613,-8.521978,-3.765754,1608115540170,0.005236,0.001745,0.052360
1608115540204,1608115539204,11.660107,-8.884825,-0.990472,1608115540203,0.076794,0.054105,-0.036652
1608115540237,1608115539228,-2.598762,-8.306232,-0.323619,1608115540237,0.003491,0.050615,0.055851
1608115540271,1608115539259,13.268397,-8.443525,-1.294478,1608115540270,0.008727,0.083776,-0.015708
1608115540304,1608115539287,0.764919,-9.747809,-1.147378,1608115540304,0.003491,0.008727,0.005236
1608115540338,1608115539318,11.679720,-6.452775,3.020448,1608115540337,-0.036652,0.024435,0.012217
1608115540371,1608115539350,2.079010,-7.639380,0.431493,1608115540371,0.034907,0.078540,0.017453
1608115540404,1608115539381,-7.060788,-8.963278,-5.530951,1608115540404,0.010472,0.146608,0.043633
1608115540438,1608115539401,-5.011198,-8.904438,-11.316874,1608115540437,-0.050615,0.087266,0.012217
1608115540473,1608115539420,5.629017,-7.541314,-0.686466,1608115540473,0.005236,0.120428,0.034907
1608115540507,1608115539444,9.453610,-7.825706,-2.255529,1608115540506,0.013963,0.191986,0.008727
1608115540540,1608115539460,1.147378,-8.041452,5.452497,1608115540540,-0.005236,-0.048869,0.015708
1608115540574,1608115539479,2.029977,-9.973363,-0.804145,1608115540573,-0.012217,0.031416,-0.001745
1608115540607,1608115539495,-3.922660,-5.570177,4.305119,1608115540607,0.012217,0.069813,0.006981
1608115540640,1608115539519,7.315761,-10.699055,-8.208166,1608115540640,0.017453,0.027925,0.057596
1608115540674,1608115539534,2.235916,-8.580818,-3.304841,1608115540673,0.031416,0.139626,0.036652
1608115540741,1608115539582,5.413270,-8.669079,0.382459,1608115540740,-0.026180,0.221657,0.069813
1608115540774,1608115540014,1.147378,-9.090764,-0.107873,1608115540774,-0.029671,0.198968,0.052360
1608115540808,1608115540041,10.032203,-8.963278,-0.107873,1608115540807,-0.045379,0.223402,0.017453
1608115540841,1608115540057,-0.431493,-7.717834,-2.637989,1608115540841,-0.038397,0.420624,0.026180
1608115540875,1608115540081,6.874462,-8.521978,-4.903325,1608115540874,0.005236,0.272271,0.045379
1608115540908,1608115540096,4.491446,-7.806093,1.431771,1608115540908,0.000000,0.211185,0.040143
1608115540942,1608115540124,2.177076,-8.159133,-1.971137,1608115540941,-0.048869,0.342085,0.041888
1608115540975,1608115540152,4.128600,-9.767424,-2.392823,1608115540975,0.008727,0.303687,0.020944
1608115541008,1608115540175,-1.029698,-9.051538,-4.265893,1608115541008,0.020944,0.249582,0.087266
1608115541042,1608115540191,1.696550,-9.688970,-3.599041,1608115541042,-0.017453,0.270526,0.045379
1608115541075,1608115540207,0.284393,-9.992976,-2.579149,1608115541075,0.000000,0.197222,0.050615
1608115541109,1608115540230,-1.657324,-9.208445,-3.138128,1608115541108,0.013963,0.176278,0.043633
1608115541142,1608115540254,-1.049312,-8.786758,-4.383573,1608115541142,-0.019199,0.486947,0.059341
1608115541176,1608115540274,4.932745,-7.217694,-3.000835,1608115541175,0.033161,0.382227,0.099484
1608115541209,1608115540293,2.029977,-7.021561,-3.922660,1608115541208,-0.036652,0.315905,0.075049
1608115541242,1608115540313,2.598762,-8.767145,-0.813952,1608115541242,0.043633,0.408407,0.057596
1608115541276,1608115540333,10.453889,-9.590903,-2.118236,1608115541275,-0.017453,0.422370,0.094248
1608115541309,1608115540352,-3.765754,-10.296982,-5.305398,1608115541309,-0.036652,0.495674,0.137881
1608115541343,1608115540376,1.510224,-9.326124,-0.049033,1608115541342,-0.013963,0.527089,0.069813
1608115541376,1608115540400,4.089373,-8.345459,-2.941995,1608115541376,-0.015708,0.516617,0.113446
1608115541409,1608115540427,3.824593,-7.982613,-0.343233,1608115541409,-0.047124,0.392699,0.160570
1608115541443,1608115540451,7.825706,-14.229449,-3.177355,1608115541443,-0.066323,0.376991,0.116937
1608115541476,1608115540474,3.922660,-8.325846,-0.402073,1608115541476,-0.061087,0.221657,0.181514
1608115541510,1608115540494,4.648352,-7.060788,5.756504,1608115541509,0.001745,0.305433,0.130900
1608115541543,1608115540770,6.050703,-12.405412,-13.288011,1608115541543,-0.087266,0.427606,0.146608
1608115541577,1608115540793,-2.196690,-13.572403,-10.434276,1608115541576,0.003491,0.574213,0.116937
1608115541610,1608115540821,10.149882,-11.356100,4.687579,1608115541610,-0.055851,0.366519,0.109956
1608115541644,1608115540841,-9.414384,-6.815621,-8.002226,1608115541643,-0.024435,0.232129,0.150098
1608115541677,1608115540860,-6.658715,-10.277369,-6.982335,1608115541677,0.034907,0.427606,0.075049
1608115541710,1608115540880,12.022953,-11.159967,3.883433,1608115541710,0.080285,0.225147,0.089012
1608115541744,1608115540900,2.432049,-9.110377,1.333704,1608115541743,0.052360,-0.158825,0.155334
1608115541777,1608115540923,9.345737,-6.492002,6.952915,1608115541777,-0.003491,0.102974,0.118682
1608115541811,1608115540951,8.061066,-6.982335,-2.451663,1608115541810,0.012217,0.319395,0.029671
1608115541844,1608115540978,8.904438,-9.433997,-5.011198,1608115541844,-0.017453,0.150098,0.057596
1608115541878,1608115541006,3.020448,-8.002226,-3.638267,1608115541877,-0.045379,0.396190,-0.130900
1608115541911,1608115541030,-19.554461,-9.894910,-3.765754,1608115541911,-0.001745,0.005236,0.075049
1608115541945,1608115541049,6.374322,-9.610517,-1.470997,1608115541944,-0.029671,-0.059341,0.186750
1608115541978,1608115541073,-2.961608,-9.590903,-6.580262,1608115541978,-0.092502,0.233874,0.144862
1608115542045,1608115541112,-1.490611,-8.267006,-3.883433,1608115542044,-0.029671,0.043633,0.043633
1608115542078,1608115541136,8.992698,-12.366185,-5.246558,1608115542078,-0.017453,0.094248,0.127409
1608115542112,1608115541156,-1.235638,-13.023231,-1.735777,1608115542111,-0.099484,0.296706,0.012217
1608115542145,1608115541179,18.230562,-7.757060,4.226666,1608115542145,-0.064577,0.017453,0.050615
1608115542179,1608115541199,-2.814508,-5.550564,-2.079010,1608115542178,0.000000,0.061087,0.029671
1608115542212,1608115541219,1.510224,-9.384964,-6.433162,1608115542211,-0.047124,0.055851,0.036652
1608115542245,1608115541235,11.836626,-5.795730,2.412436,1608115542245,-0.041888,0.061087,0.045379
1608115542279,1608115541251,8.267006,-10.659828,-4.462026,1608115542278,-0.015708,0.106465,0.031416
1608115542312,1608115541271,-14.719781,-7.717834,-3.599041,1608115542312,0.043633,0.151844,0.099484
1608115542346,1608115541554,4.324733,-10.316595,-1.814230,1608115542345,0.010472,0.003491,0.066323
1608115542379,1608115541570,-10.738281,-3.059675,2.196690,1608115542378,-0.033161,0.167552,-0.064577
1608115542413,1608115541582,2.392823,-4.991585,-4.207053,1608115542412,-0.050615,0.000000,0.038397
1608115542446,1608115541593,11.758173,-8.139520,-3.903047,1608115542446,-0.054105,0.123918,0.082030
1608115542480,1608115541613,-5.452497,-7.354987,1.166991,1608115542479,-0.020944,0.064577,0.012217
1608115542513,1608115541633,1.225831,-10.934415,4.422799,1608115542512,-0.010472,0.040143,-0.001745
1608115542546,1608115541645,1.794617,-11.297260,0.931632,1608115542546,0.006981,0.031416,-0.003491
1608115542580,1608115541657,12.366185,-9.728196,0.509946,1608115542579,-0.034907,0.125664,0.006981
1608115542613,1608115541669,0.304006,-9.149604,-0.804145,1608115542613,-0.024435,-0.038397,0.017453
1608115542647,1608115541685,-3.804980,-7.982613,-6.894075,1608115542646,-0.029671,0.068068,0.019199
1608115542680,1608115541701,2.814508,-5.854570,-0.568786,1608115542680,-0.024435,-0.029671,-0.008727
1608115542714,1608115541713,-0.490332,-6.129156,-0.872792,1608115542713,-0.034907,-0.048869,0.000000
1608115542747,1608115541725,-7.198081,-8.502365,-1.372931,1608115542747,-0.026180,0.006981,0.040143
1608115542780,1608115541737,4.844485,-7.943386,0.000000,1608115542780,-0.026180,-0.010472,0.040143
1608115542814,1608115541757,3.177355,-9.532063,0.402073,1608115542814,-0.027925,-0.169297,0.033161
1608115542867,1608115541769,1.657324,-7.737447,0.853179,1608115542866,-0.019199,-0.076794,-0.012217
1608115542900,1608115541793,-1.990750,-9.649743,-3.785367,1608115542900,-0.017453,-0.181514,-0.003491
1608115542934,1608115541812,0.608012,-9.571290,-1.716164,1608115542933,-0.026180,-0.062832,-0.075049
1608115542967,1608115541824,-1.392544,-9.208445,-2.461469,1608115542966,-0.010472,-0.043633,-0.015708
1608115543000,1608115541848,0.362846,-9.551677,-4.971972,1608115543000,-0.006981,0.027925,-0.022689
1608115543034,1608115541872,-2.216303,-8.649466,-4.324733,1608115543033,0.017453,-0.019199,0.008727
1608115543067,1608115541896,-3.461747,-10.375436,-1.529837,1608115543067,-0.024435,-0.027925,-0.073304
1608115543101,1608115541921,-1.588677,-9.326124,-2.883155,1608115543100,-0.024435,0.054105,-0.033161
1608115543134,1608115541945,4.462026,-8.159133,-0.451106,1608115543134,0.013963,-0.043633,-0.036652
1608115543168,1608115541968,-5.727084,-8.443525,-1.166991,1608115543167,-0.001745,-0.005236,-0.045379
1608115543201,1608115541988,4.148213,-7.717834,-2.618376,1608115543201,0.017453,-0.059341,-0.071558
1608115543234,1608115542012,-2.314369,-8.521978,-2.579149,1608115543234,0.033161,-0.123918,-0.001745
1608115543268,1608115542031,-7.217694,-8.463139,-6.776395,1608115543268,0.078540,-0.219911,-0.043633
1608115543301,1608115542322,-4.550285,-8.502365,-4.913132,1608115543301,0.041888,-0.095993,-0.031416
1608115543335,1608115542350,-5.315204,-9.914523,-2.736055,1608115543335,0.036652,-0.197222,0.005236
1608115543368,1608115542366,-5.148491,-7.825706,-0.588399,1608115543368,0.001745,0.003491,0.008727
1608115543402,1608115542389,1.225831,-7.482474,-2.432049,1608115543401,-0.003491,-0.097738,-0.075049
1608115543435,1608115542409,-1.814230,-8.178746,-2.775282,1608115543435,-0.019199,-0.144862,-0.031416
1608115543469,1608115542437,-7.580540,-10.836348,-3.157741,1608115543468,0.034907,-0.157080,-0.055851
1608115543503,1608115542468,7.904160,-6.393936,11.483587,1608115543502,0.019199,-0.272271,-0.089012
1608115543536,1608115542488,-6.354709,-5.550564,4.687579,1608115543536,-0.038397,-0.092502,-0.054105
1608115543570,1608115542507,3.706914,-11.218807,-11.836626,1608115543569,-0.012217,-0.027925,-0.069813
1608115543603,1608115542527,6.678329,-11.061901,-10.934415,1608115543603,0.068068,-0.167552,-0.047124
1608115543637,1608115542551,-8.100293,-7.619767,-1.931910,1608115543636,-0.010472,-0.041888,-0.010472
1608115543670,1608115542574,6.050703,-14.307902,-0.284393,1608115543670,-0.059341,-0.321141,-0.083776
1608115543703,1608115542594,-8.404299,-10.228335,-6.256642,1608115543703,0.010472,-0.328122,-0.005236
1608115543737,1608115542625,6.776395,-7.462861,-7.541314,1608115543736,0.071558,-0.193732,-0.083776
1608115543770,1608115542653,8.002226,-7.757060,2.941995,1608115543770,0.008727,-0.380482,-0.024435
1608115543804,1608115542680,-3.461747,-10.630408,-2.392823,1608115543803,0.015708,-0.301942,-0.055851
1608115543837,1608115542700,-0.509946,-8.267006,-2.373209,1608115543836,0.000000,-0.314159,-0.024435
1608115543871,1608115542732,-6.393936,-9.973363,-1.588677,1608115543870,0.010472,-0.425860,-0.104720
1608115543904,1608115542759,-0.382459,-10.797121,-6.737168,1608115543904,-0.043633,-0.399680,-0.085521
1608115543938,1608115542783,0.264780,-11.238420,-3.844207,1608115543938,0.003491,-0.630064,-0.150098
1608115543972,1608115542806,2.432049,-9.404577,-2.196690,1608115543972,0.000000,-0.633555,-0.132645
1608115544005,1608115543310,-1.186605,-11.140354,-1.353318,1608115544005,-0.010472,-0.539307,-0.178024
1608115544039,1608115543337,-3.599041,-9.894910,1.755390,1608115544038,-0.020944,-0.495674,-0.144862
1608115544072,1608115543365,-0.088260,-10.699055,-0.029420,1608115544072,0.019199,-0.537561,-0.092502
1608115544106,1608115543392,-4.726805,-5.991863,-5.776117,1608115544105,0.034907,-0.560251,-0.137881
1608115544139,1608115543420,-14.572681,-9.551677,-5.354431,1608115544139,0.008727,-0.668461,-0.087266
1608115544172,1608115543447,-8.943665,-9.169217,-4.324733,1608115544172,0.027925,-0.523599,-0.089012
1608115544206,1608115543471,-0.470719,-10.257755,-0.764919,1608115544205,-0.033161,-0.513127,-0.186750
1608115544239,1608115543503,-5.207331,-6.717555,-4.040339,1608115544239,-0.047124,-0.417134,-0.162316
1608115544273,1608115543526,-7.060788,-11.179581,-4.511059,1608115544273,-0.008727,-0.513127,-0.136136
1608115544306,1608115543550,1.372931,-7.717834,-1.990750,1608115544306,-0.013963,-0.605629,-0.127409
1608115544340,1608115543570,-2.079010,-10.149882,-2.834122,1608115544339,-0.029671,-0.602139,-0.111701
1608115544373,1608115543601,-3.726527,-6.913688,-2.275143,1608115544373,0.001745,-0.555015,-0.111701
1608115544407,1608115543625,-4.265893,-9.129991,-1.049312,1608115544406,0.020944,-0.651008,-0.102974
1608115544473,1608115543657,-2.196690,-7.423634,1.431771,1608115544473,0.017453,-0.525344,-0.080285
1608115544507,1608115543681,-0.990472,-10.051816,-3.177355,1608115544507,-0.026180,-0.438078,-0.157080
1608115544540,1608115543704,-1.775004,-6.962721,-6.541035,1608115544540,0.000000,-0.752237,-0.050615
1608115544574,1608115543732,4.059953,-10.071429,-4.265893,1608115544573,-0.019199,-0.701622,-0.087266
1608115544607,1608115543756,-6.109543,-9.384964,-9.267284,1608115544607,-0.022689,-0.666716,-0.148353
1608115544641,1608115543779,-0.166713,-10.071429,-1.490611,1608115544640,-0.041888,-0.558505,-0.137881
1608115544674,1608115543799,-2.177076,-11.483587,-2.353596,1608115544674,-0.034907,-0.525344,-0.169297
1608115544707,1608115544021,0.853179,-6.129156,-4.079566,1608115544707,0.010472,-0.506145,-0.150098
1608115544741,1608115544044,-0.872792,-9.071151,-5.687857,1608115544741,0.029671,-0.586431,-0.104720
1608115544774,1608115544064,-0.853179,-9.649743,-4.344346,1608115544774,-0.006981,-0.493928,-0.151844
1608115544808,1608115544084,0.166713,-8.100293,-2.579149,1608115544807,-0.012217,-0.322886,-0.155334
1608115544841,1608115544104,-7.217694,-8.423912,-0.362846,1608115544841,0.020944,-0.577704,-0.134390
1608115544875,1608115544128,12.503478,-9.247671,-1.716164,1608115544874,0.024435,-0.598648,-0.101229
1608115544908,1608115544151,-9.816457,-10.012589,-5.128878,1608115544908,-0.001745,-0.675442,-0.167552
1608115544941,1608115544175,-1.127765,-7.884546,-4.403186,1608115544941,0.013963,-0.504400,-0.125664
1608115544975,1608115544199,-2.059397,-12.679998,-4.167826,1608115544974,-0.012217,-0.551524,-0.150098
1608115545008,1608115544219,-9.630130,-11.218807,-4.207053,1608115545008,-0.015708,-0.549779,-0.176278
1608115545042,1608115544242,2.177076,-8.561205,-5.668243,1608115545042,-0.024435,-0.694641,-0.127409
1608115545075,1608115544262,-5.354431,-9.169217,-2.716442,1608115545075,0.003491,-0.631809,-0.132645
1608115545109,1608115544282,-0.931632,-9.610517,0.000000,1608115545108,0.017453,-0.591667,-0.127409
1608115545142,1608115544302,-8.286619,-10.610795,-3.618654,1608115545142,-0.001745,-0.579449,-0.125664
1608115545176,1608115544325,-1.235638,-8.688692,-0.549172,1608115545175,-0.013963,-0.588176,-0.144862
1608115545209,1608115544353,0.608012,-9.688970,-3.726527,1608115545209,0.022689,-0.607375,-0.113446
1608115545242,1608115544381,1.451384,-9.571290,-3.863820,1608115545242,0.019199,-0.612611,-0.132645
1608115545276,1608115544404,-0.745305,-8.649466,-1.333704,1608115545276,0.001745,-0.518363,-0.115192
1608115545309,1608115544428,-1.912297,-11.817013,-4.766032,1608115545309,0.000000,-0.602139,-0.188496
1608115545343,1608115544456,-0.764919,-10.434276,-2.755669,1608115545342,-0.013963,-0.467748,-0.125664
1608115545376,1608115544479,-4.648352,-7.335374,-3.765754,1608115545376,-0.010472,-0.500910,-0.129154
1608115545410,1608115544503,2.677215,-9.071151,-1.696550,1608115545409,0.006981,-0.466003,-0.116937
1608115545443,1608115544708,-1.657324,-10.032203,-4.511059,1608115545442,0.008727,-0.514872,-0.139626
1608115545476,1608115544736,-4.442412,-8.963278,-3.863820,1608115545476,0.012217,-0.530580,-0.099484
1608115545518,1608115544752,-2.598762,-9.433997,-3.746140,1608115545517,0.000000,-0.535816,-0.115192
1608115545551,1608115544776,-0.764919,-8.041452,-0.529559,1608115545551,0.008727,-0.581195,-0.080285
1608115545585,1608115544795,-5.668243,-9.708583,-4.059953,1608115545584,0.005236,-0.567232,-0.099484
1608115545618,1608115544819,-4.913132,-9.345737,-3.981500,1608115545618,0.008727,-0.532325,-0.132645
1608115545652,1608115544835,0.000000,-9.404577,-2.039783,1608115545651,0.019199,-0.577704,-0.143117
1608115545685,1608115544858,-5.374044,-9.051538,-1.470997,1608115545685,0.010472,-0.431096,-0.125664
1608115545718,1608115544878,0.000000,-8.992698,0.000000,1608115545718,-0.012217,-0.499164,-0.141372
1608115545752,1608115544906,-4.422799,-9.512450,-4.403186,1608115545752,-0.055851,-0.383972,-0.141372
1608115545785,1608115544926,3.657880,-9.855683,-2.039783,1608115545785,0.019199,-0.218166,-0.061087
1608115545819,1608115544945,-1.353318,-10.012589,-2.775282,1608115545819,0.013963,-0.321141,-0.116937
1608115545852,1608115544973,-1.333704,-9.188830,-3.265614,1608115545852,-0.041888,-0.317650,-0.033161
1608115545886,1608115544993,1.088538,-9.433997,-0.686466,1608115545886,-0.017453,-0.141372,-0.087266
1608115545919,1608115545016,-1.049312,-7.806093,-1.412158,1608115545919,-0.010472,-0.089012,-0.020944
1608115545953,1608115545036,3.402907,-10.130269,-6.374322,1608115545952,0.005236,-0.193732,-0.041888
1608115546020,1608115545080,2.373209,-7.943386,2.755669,1608115546019,0.022689,-0.101229,0.000000
1608115546053,1608115545099,1.755390,-7.864933,0.147100,1608115546053,-0.006981,-0.036652,-0.013963
1608115546087,1608115545127,1.470997,-9.071151,0.529559,1608115546086,-0.006981,-0.188496,-0.003491
1608115546120,1608115545147,-3.196968,-6.854848,-1.412158,1608115546120,0.015708,-0.155334,-0.040143
